#
# Results on Monday November 04 2019 15:21:11 UTC.
# USER AGENT: Mozilla/5.0 (Windows NT 10.0; Win64; x64) AppleWebKit/537.36 (KHTML, like Gecko) Chrome/78.0.3904.70 Safari/537.36
# Design number was non-random = 0
#
# Columns below this comment are as follows:
# 1. Time results were received.
# 2. MD5 hash of participant's IP address.
# 3. Controller name.
# 4. Item number.
# 5. Element number.
# 6. Type.
# 7. Group.
# 8. Field name.
# 9. Field value.
1572880872,0a183bf7946b4bec039b2e124d662a3f,completion,2,0,intro,NULL,age,24
1572880872,0a183bf7946b4bec039b2e124d662a3f,completion,2,0,intro,NULL,nationality,x
1572880872,0a183bf7946b4bec039b2e124d662a3f,completion,2,0,intro,NULL,activity,x
1572880872,0a183bf7946b4bec039b2e124d662a3f,completion,2,0,intro,NULL,birth,x
1572880872,0a183bf7946b4bec039b2e124d662a3f,completion,2,0,intro,NULL,L1,x
1572880872,0a183bf7946b4bec039b2e124d662a3f,completion,2,0,intro,NULL,L1,x
1572880872,0a183bf7946b4bec039b2e124d662a3f,completion,2,0,intro,NULL,consent,yes
1572880872,0a183bf7946b4bec039b2e124d662a3f,completion,2,0,intro,NULL,gender,male
1572880872,0a183bf7946b4bec039b2e124d662a3f,completion,2,0,intro,NULL,academics,bac
1572880872,0a183bf7946b4bec039b2e124d662a3f,completion,2,0,intro,NULL,_REACTION_TIME_,7723
1572880872,0a183bf7946b4bec039b2e124d662a3f,completion,5,0,practice,101,in,x
1572880872,0a183bf7946b4bec039b2e124d662a3f,completion,5,0,practice,101,_REACTION_TIME_,1327
1572880872,0a183bf7946b4bec039b2e124d662a3f,completion,3,0,practice,102,in,x
1572880872,0a183bf7946b4bec039b2e124d662a3f,completion,3,0,practice,102,_REACTION_TIME_,409
1572880872,0a183bf7946b4bec039b2e124d662a3f,completion,8,0,practice,33,in,x
1572880872,0a183bf7946b4bec039b2e124d662a3f,completion,8,0,practice,33,_REACTION_TIME_,385
1572880872,0a183bf7946b4bec039b2e124d662a3f,completion,6,0,practice,31,in,x
1572880872,0a183bf7946b4bec039b2e124d662a3f,completion,6,0,practice,31,_REACTION_TIME_,410
1572880872,0a183bf7946b4bec039b2e124d662a3f,completion,4,0,practice,103,in,x
1572880872,0a183bf7946b4bec039b2e124d662a3f,completion,4,0,practice,103,_REACTION_TIME_,383
1572880872,0a183bf7946b4bec039b2e124d662a3f,completion,10,0,practice,35,in,x
1572880872,0a183bf7946b4bec039b2e124d662a3f,completion,10,0,practice,35,_REACTION_TIME_,425
1572880872,0a183bf7946b4bec039b2e124d662a3f,completion,35,0,percep_low,25,in,x
1572880872,0a183bf7946b4bec039b2e124d662a3f,completion,35,0,percep_low,25,_REACTION_TIME_,752
1572880872,0a183bf7946b4bec039b2e124d662a3f,completion,35,1,percep_low,25,in,x
1572880872,0a183bf7946b4bec039b2e124d662a3f,completion,35,1,percep_low,25,_REACTION_TIME_,956
1572880872,0a183bf7946b4bec039b2e124d662a3f,completion,14,0,stat_low,4,in,x
1572880872,0a183bf7946b4bec039b2e124d662a3f,completion,14,0,stat_low,4,_REACTION_TIME_,583
1572880872,0a183bf7946b4bec039b2e124d662a3f,completion,14,1,stat_low,4,in,x
1572880872,0a183bf7946b4bec039b2e124d662a3f,completion,14,1,stat_low,4,_REACTION_TIME_,886
1572880872,0a183bf7946b4bec039b2e124d662a3f,completion,44,0,FM,36,in,x
1572880872,0a183bf7946b4bec039b2e124d662a3f,completion,44,0,FM,36,_REACTION_TIME_,545
1572880872,0a183bf7946b4bec039b2e124d662a3f,completion,31,0,percep_low,21,in,x
1572880872,0a183bf7946b4bec039b2e124d662a3f,completion,31,0,percep_low,21,_REACTION_TIME_,369
1572880872,0a183bf7946b4bec039b2e124d662a3f,completion,31,1,percep_low,21,in,x
1572880872,0a183bf7946b4bec039b2e124d662a3f,completion,31,1,percep_low,21,_REACTION_TIME_,415
1572880872,0a183bf7946b4bec039b2e124d662a3f,completion,59,0,filler,66,in,x
1572880872,0a183bf7946b4bec039b2e124d662a3f,completion,59,0,filler,66,_REACTION_TIME_,369
1572880872,0a183bf7946b4bec039b2e124d662a3f,completion,30,0,stat_low,20,in,x
1572880872,0a183bf7946b4bec039b2e124d662a3f,completion,30,0,stat_low,20,_REACTION_TIME_,390
1572880872,0a183bf7946b4bec039b2e124d662a3f,completion,30,1,stat_low,20,in,x
1572880872,0a183bf7946b4bec039b2e124d662a3f,completion,30,1,stat_low,20,_REACTION_TIME_,375
1572880872,0a183bf7946b4bec039b2e124d662a3f,completion,50,0,FM,42,in,x
1572880872,0a183bf7946b4bec039b2e124d662a3f,completion,50,0,FM,42,_REACTION_TIME_,374
1572880872,0a183bf7946b4bec039b2e124d662a3f,completion,33,0,percep_high,23,in,x
1572880872,0a183bf7946b4bec039b2e124d662a3f,completion,33,0,percep_high,23,_REACTION_TIME_,375
1572880872,0a183bf7946b4bec039b2e124d662a3f,completion,33,1,percep_high,23,in,x
1572880872,0a183bf7946b4bec039b2e124d662a3f,completion,33,1,percep_high,23,_REACTION_TIME_,374
1572880872,0a183bf7946b4bec039b2e124d662a3f,completion,54,0,filler,61,in,x
1572880872,0a183bf7946b4bec039b2e124d662a3f,completion,54,0,filler,61,_REACTION_TIME_,410
1572880872,0a183bf7946b4bec039b2e124d662a3f,completion,11,0,percep_low,1,in,x
1572880872,0a183bf7946b4bec039b2e124d662a3f,completion,11,0,percep_low,1,_REACTION_TIME_,385
1572880872,0a183bf7946b4bec039b2e124d662a3f,completion,11,1,percep_low,1,in,x
1572880872,0a183bf7946b4bec039b2e124d662a3f,completion,11,1,percep_low,1,_REACTION_TIME_,409
1572880872,0a183bf7946b4bec039b2e124d662a3f,completion,56,0,filler,63,in,x
1572880872,0a183bf7946b4bec039b2e124d662a3f,completion,56,0,filler,63,_REACTION_TIME_,364
1572880872,0a183bf7946b4bec039b2e124d662a3f,completion,23,0,percep_low,13,in,x
1572880872,0a183bf7946b4bec039b2e124d662a3f,completion,23,0,percep_low,13,_REACTION_TIME_,369
1572880872,0a183bf7946b4bec039b2e124d662a3f,completion,23,1,percep_low,13,in,x
1572880872,0a183bf7946b4bec039b2e124d662a3f,completion,23,1,percep_low,13,_REACTION_TIME_,396
1572880872,0a183bf7946b4bec039b2e124d662a3f,completion,63,0,filler,70,in,x
1572880872,0a183bf7946b4bec039b2e124d662a3f,completion,63,0,filler,70,_REACTION_TIME_,404
1572880872,0a183bf7946b4bec039b2e124d662a3f,completion,38,0,percep_high,28,in,x
1572880872,0a183bf7946b4bec039b2e124d662a3f,completion,38,0,percep_high,28,_REACTION_TIME_,414
1572880872,0a183bf7946b4bec039b2e124d662a3f,completion,38,1,percep_high,28,in,x
1572880872,0a183bf7946b4bec039b2e124d662a3f,completion,38,1,percep_high,28,_REACTION_TIME_,435
1572880872,0a183bf7946b4bec039b2e124d662a3f,completion,55,0,filler,62,in,x
1572880872,0a183bf7946b4bec039b2e124d662a3f,completion,55,0,filler,62,_REACTION_TIME_,390
1572880872,0a183bf7946b4bec039b2e124d662a3f,completion,32,0,stat_high,22,in,x
1572880872,0a183bf7946b4bec039b2e124d662a3f,completion,32,0,stat_high,22,_REACTION_TIME_,424
1572880872,0a183bf7946b4bec039b2e124d662a3f,completion,32,1,stat_high,22,in,x
1572880872,0a183bf7946b4bec039b2e124d662a3f,completion,32,1,stat_high,22,_REACTION_TIME_,1191
1572880872,0a183bf7946b4bec039b2e124d662a3f,completion,45,0,FM,37,in,x
1572880872,0a183bf7946b4bec039b2e124d662a3f,completion,45,0,FM,37,_REACTION_TIME_,471
1572880872,0a183bf7946b4bec039b2e124d662a3f,completion,34,0,stat_low,24,in,x
1572880872,0a183bf7946b4bec039b2e124d662a3f,completion,34,0,stat_low,24,_REACTION_TIME_,363
1572880872,0a183bf7946b4bec039b2e124d662a3f,completion,34,1,stat_low,24,in,x
1572880872,0a183bf7946b4bec039b2e124d662a3f,completion,34,1,stat_low,24,_REACTION_TIME_,395
1572880872,0a183bf7946b4bec039b2e124d662a3f,completion,22,0,stat_low,12,in,x
1572880872,0a183bf7946b4bec039b2e124d662a3f,completion,22,0,stat_low,12,_REACTION_TIME_,375
1572880872,0a183bf7946b4bec039b2e124d662a3f,completion,22,1,stat_low,12,in,x
1572880872,0a183bf7946b4bec039b2e124d662a3f,completion,22,1,stat_low,12,_REACTION_TIME_,409
1572880872,0a183bf7946b4bec039b2e124d662a3f,completion,40,0,FM,32,in,x
1572880872,0a183bf7946b4bec039b2e124d662a3f,completion,40,0,FM,32,_REACTION_TIME_,394
1572880872,0a183bf7946b4bec039b2e124d662a3f,completion,37,0,percep_high,27,in,x
1572880872,0a183bf7946b4bec039b2e124d662a3f,completion,37,0,percep_high,27,_REACTION_TIME_,414
1572880872,0a183bf7946b4bec039b2e124d662a3f,completion,37,1,percep_high,27,in,x
1572880872,0a183bf7946b4bec039b2e124d662a3f,completion,37,1,percep_high,27,_REACTION_TIME_,415
1572880872,0a183bf7946b4bec039b2e124d662a3f,completion,64,0,filler,71,in,x
1572880872,0a183bf7946b4bec039b2e124d662a3f,completion,64,0,filler,71,_REACTION_TIME_,400
1572880872,0a183bf7946b4bec039b2e124d662a3f,completion,28,0,stat_high,18,in,x
1572880872,0a183bf7946b4bec039b2e124d662a3f,completion,28,0,stat_high,18,_REACTION_TIME_,394
1572880872,0a183bf7946b4bec039b2e124d662a3f,completion,28,1,stat_high,18,in,x
1572880872,0a183bf7946b4bec039b2e124d662a3f,completion,28,1,stat_high,18,_REACTION_TIME_,405
1572880872,0a183bf7946b4bec039b2e124d662a3f,completion,62,0,filler,69,in,x
1572880872,0a183bf7946b4bec039b2e124d662a3f,completion,62,0,filler,69,_REACTION_TIME_,415
1572880872,0a183bf7946b4bec039b2e124d662a3f,completion,25,0,percep_high,15,in,x
1572880872,0a183bf7946b4bec039b2e124d662a3f,completion,25,0,percep_high,15,_REACTION_TIME_,374
1572880872,0a183bf7946b4bec039b2e124d662a3f,completion,25,1,percep_high,15,in,x
1572880872,0a183bf7946b4bec039b2e124d662a3f,completion,25,1,percep_high,15,_REACTION_TIME_,395
1572880872,0a183bf7946b4bec039b2e124d662a3f,completion,52,0,FM,44,in,x
1572880872,0a183bf7946b4bec039b2e124d662a3f,completion,52,0,FM,44,_REACTION_TIME_,349
1572880872,0a183bf7946b4bec039b2e124d662a3f,completion,24,0,stat_high,14,in,x
1572880872,0a183bf7946b4bec039b2e124d662a3f,completion,24,0,stat_high,14,_REACTION_TIME_,380
1572880872,0a183bf7946b4bec039b2e124d662a3f,completion,24,1,stat_high,14,in,x
1572880872,0a183bf7946b4bec039b2e124d662a3f,completion,24,1,stat_high,14,_REACTION_TIME_,389
1572880872,0a183bf7946b4bec039b2e124d662a3f,completion,46,0,FM,38,in,x
1572880872,0a183bf7946b4bec039b2e124d662a3f,completion,46,0,FM,38,_REACTION_TIME_,345
1572880872,0a183bf7946b4bec039b2e124d662a3f,completion,17,0,percep_high,7,in,x
1572880872,0a183bf7946b4bec039b2e124d662a3f,completion,17,0,percep_high,7,_REACTION_TIME_,383
1572880872,0a183bf7946b4bec039b2e124d662a3f,completion,17,1,percep_high,7,in,x
1572880872,0a183bf7946b4bec039b2e124d662a3f,completion,17,1,percep_high,7,_REACTION_TIME_,385
1572880872,0a183bf7946b4bec039b2e124d662a3f,completion,51,0,FM,43,in,x
1572880872,0a183bf7946b4bec039b2e124d662a3f,completion,51,0,FM,43,_REACTION_TIME_,385
1572880872,0a183bf7946b4bec039b2e124d662a3f,completion,21,0,percep_high,11,in,x
1572880872,0a183bf7946b4bec039b2e124d662a3f,completion,21,0,percep_high,11,_REACTION_TIME_,384
1572880872,0a183bf7946b4bec039b2e124d662a3f,completion,21,1,percep_high,11,in,x
1572880872,0a183bf7946b4bec039b2e124d662a3f,completion,21,1,percep_high,11,_REACTION_TIME_,350
1572880872,0a183bf7946b4bec039b2e124d662a3f,completion,49,0,FM,41,in,x
1572880872,0a183bf7946b4bec039b2e124d662a3f,completion,49,0,FM,41,_REACTION_TIME_,374
1572880872,0a183bf7946b4bec039b2e124d662a3f,completion,19,0,percep_low,9,in,x
1572880872,0a183bf7946b4bec039b2e124d662a3f,completion,19,0,percep_low,9,_REACTION_TIME_,365
1572880872,0a183bf7946b4bec039b2e124d662a3f,completion,19,1,percep_low,9,in,x
1572880872,0a183bf7946b4bec039b2e124d662a3f,completion,19,1,percep_low,9,_REACTION_TIME_,419
1572880872,0a183bf7946b4bec039b2e124d662a3f,completion,58,0,filler,65,in,x
1572880872,0a183bf7946b4bec039b2e124d662a3f,completion,58,0,filler,65,_REACTION_TIME_,370
1572880872,0a183bf7946b4bec039b2e124d662a3f,completion,15,0,percep_low,5,in,x
1572880872,0a183bf7946b4bec039b2e124d662a3f,completion,15,0,percep_low,5,_REACTION_TIME_,360
1572880872,0a183bf7946b4bec039b2e124d662a3f,completion,15,1,percep_low,5,in,x
1572880872,0a183bf7946b4bec039b2e124d662a3f,completion,15,1,percep_low,5,_REACTION_TIME_,449
1572880872,0a183bf7946b4bec039b2e124d662a3f,completion,16,0,stat_high,6,in,x
1572880872,0a183bf7946b4bec039b2e124d662a3f,completion,16,0,stat_high,6,_REACTION_TIME_,400
1572880872,0a183bf7946b4bec039b2e124d662a3f,completion,16,1,stat_high,6,in,x
1572880872,0a183bf7946b4bec039b2e124d662a3f,completion,16,1,stat_high,6,_REACTION_TIME_,379
1572880872,0a183bf7946b4bec039b2e124d662a3f,completion,61,0,filler,68,in,x
1572880872,0a183bf7946b4bec039b2e124d662a3f,completion,61,0,filler,68,_REACTION_TIME_,380
1572880872,0a183bf7946b4bec039b2e124d662a3f,completion,18,0,stat_low,8,in,x
1572880872,0a183bf7946b4bec039b2e124d662a3f,completion,18,0,stat_low,8,_REACTION_TIME_,384
1572880872,0a183bf7946b4bec039b2e124d662a3f,completion,18,1,stat_low,8,in,x
1572880872,0a183bf7946b4bec039b2e124d662a3f,completion,18,1,stat_low,8,_REACTION_TIME_,364
1572880872,0a183bf7946b4bec039b2e124d662a3f,completion,48,0,FM,40,in,x
1572880872,0a183bf7946b4bec039b2e124d662a3f,completion,48,0,FM,40,_REACTION_TIME_,375
1572880872,0a183bf7946b4bec039b2e124d662a3f,completion,20,0,stat_high,10,in,x
1572880872,0a183bf7946b4bec039b2e124d662a3f,completion,20,0,stat_high,10,_REACTION_TIME_,404
1572880872,0a183bf7946b4bec039b2e124d662a3f,completion,20,1,stat_high,10,in,x
1572880872,0a183bf7946b4bec039b2e124d662a3f,completion,20,1,stat_high,10,_REACTION_TIME_,374
1572880872,0a183bf7946b4bec039b2e124d662a3f,completion,53,0,filler,60,in,x
1572880872,0a183bf7946b4bec039b2e124d662a3f,completion,53,0,filler,60,_REACTION_TIME_,334
1572880872,0a183bf7946b4bec039b2e124d662a3f,completion,12,0,stat_high,2,in,x
1572880872,0a183bf7946b4bec039b2e124d662a3f,completion,12,0,stat_high,2,_REACTION_TIME_,390
1572880872,0a183bf7946b4bec039b2e124d662a3f,completion,12,1,stat_high,2,in,x
1572880872,0a183bf7946b4bec039b2e124d662a3f,completion,12,1,stat_high,2,_REACTION_TIME_,440
1572880872,0a183bf7946b4bec039b2e124d662a3f,completion,60,0,filler,67,in,x
1572880872,0a183bf7946b4bec039b2e124d662a3f,completion,60,0,filler,67,_REACTION_TIME_,240
1572880872,0a183bf7946b4bec039b2e124d662a3f,completion,27,0,percep_low,17,in,x
1572880872,0a183bf7946b4bec039b2e124d662a3f,completion,27,0,percep_low,17,_REACTION_TIME_,374
1572880872,0a183bf7946b4bec039b2e124d662a3f,completion,27,1,percep_low,17,in,x
1572880872,0a183bf7946b4bec039b2e124d662a3f,completion,27,1,percep_low,17,_REACTION_TIME_,414
1572880872,0a183bf7946b4bec039b2e124d662a3f,completion,65,0,filler,72,in,x
1572880872,0a183bf7946b4bec039b2e124d662a3f,completion,65,0,filler,72,_REACTION_TIME_,410
1572880872,0a183bf7946b4bec039b2e124d662a3f,completion,29,0,percep_high,19,in,x
1572880872,0a183bf7946b4bec039b2e124d662a3f,completion,29,0,percep_high,19,_REACTION_TIME_,460
1572880872,0a183bf7946b4bec039b2e124d662a3f,completion,29,1,percep_high,19,in,x
1572880872,0a183bf7946b4bec039b2e124d662a3f,completion,29,1,percep_high,19,_REACTION_TIME_,404
1572880872,0a183bf7946b4bec039b2e124d662a3f,completion,42,0,FM,34,in,x
1572880872,0a183bf7946b4bec039b2e124d662a3f,completion,42,0,FM,34,_REACTION_TIME_,330
1572880872,0a183bf7946b4bec039b2e124d662a3f,completion,13,0,percep_high,3,in,x
1572880872,0a183bf7946b4bec039b2e124d662a3f,completion,13,0,percep_high,3,_REACTION_TIME_,429
1572880872,0a183bf7946b4bec039b2e124d662a3f,completion,13,1,percep_high,3,in,x
1572880872,0a183bf7946b4bec039b2e124d662a3f,completion,13,1,percep_high,3,_REACTION_TIME_,2653
1572880872,0a183bf7946b4bec039b2e124d662a3f,completion,66,0,filler,73,in,x
1572880872,0a183bf7946b4bec039b2e124d662a3f,completion,66,0,filler,73,_REACTION_TIME_,595
1572880872,0a183bf7946b4bec039b2e124d662a3f,completion,26,0,stat_low,16,in,x
1572880872,0a183bf7946b4bec039b2e124d662a3f,completion,26,0,stat_low,16,_REACTION_TIME_,410
1572880872,0a183bf7946b4bec039b2e124d662a3f,completion,26,1,stat_low,16,in,x
1572880872,0a183bf7946b4bec039b2e124d662a3f,completion,26,1,stat_low,16,_REACTION_TIME_,640
1572880872,0a183bf7946b4bec039b2e124d662a3f,completion,57,0,filler,64,in,x
1572880872,0a183bf7946b4bec039b2e124d662a3f,completion,57,0,filler,64,_REACTION_TIME_,394
1572880872,0a183bf7946b4bec039b2e124d662a3f,completion,36,0,stat_high,26,in,x
1572880872,0a183bf7946b4bec039b2e124d662a3f,completion,36,0,stat_high,26,_REACTION_TIME_,935
1572880872,0a183bf7946b4bec039b2e124d662a3f,completion,36,1,stat_high,26,in,x
1572880872,0a183bf7946b4bec039b2e124d662a3f,completion,36,1,stat_high,26,_REACTION_TIME_,389
1572880872,0a183bf7946b4bec039b2e124d662a3f,completion,47,0,FM,39,in,x
1572880872,0a183bf7946b4bec039b2e124d662a3f,completion,47,0,FM,39,_REACTION_TIME_,370
#
# Results on Thursday November 28 2019 13:50:13 UTC.
# USER AGENT: Mozilla/5.0 (X11; Ubuntu; Linux x86_64; rv:70.0) Gecko/20100101 Firefox/70.0
# Design number was non-random = 1
#
# Columns below this comment are as follows:
# 1. Time results were received.
# 2. MD5 hash of participant's IP address.
# 3. Controller name.
# 4. Item number.
# 5. Element number.
# 6. Type.
# 7. Group.
# 8. Field name.
# 9. Field value.
1574949014,70018c31e40238d750a7ff40ea4d1eb2,completion,2,0,intro,NULL,age,46
1574949014,70018c31e40238d750a7ff40ea4d1eb2,completion,2,0,intro,NULL,nationality,francaise
1574949014,70018c31e40238d750a7ff40ea4d1eb2,completion,2,0,intro,NULL,activity,bac secretariat assistante juridique
1574949014,70018c31e40238d750a7ff40ea4d1eb2,completion,2,0,intro,NULL,birth,france
1574949014,70018c31e40238d750a7ff40ea4d1eb2,completion,2,0,intro,NULL,L1,français
1574949014,70018c31e40238d750a7ff40ea4d1eb2,completion,2,0,intro,NULL,L1,bleue
1574949014,70018c31e40238d750a7ff40ea4d1eb2,completion,2,0,intro,NULL,consent,yes
1574949014,70018c31e40238d750a7ff40ea4d1eb2,completion,2,0,intro,NULL,gender,female
1574949014,70018c31e40238d750a7ff40ea4d1eb2,completion,2,0,intro,NULL,academics,bac
1574949014,70018c31e40238d750a7ff40ea4d1eb2,completion,2,0,intro,NULL,_REACTION_TIME_,922240
1574949014,70018c31e40238d750a7ff40ea4d1eb2,completion,9,0,practice,34,in,37
1574949014,70018c31e40238d750a7ff40ea4d1eb2,completion,9,0,practice,34,_REACTION_TIME_,29458
1574949014,70018c31e40238d750a7ff40ea4d1eb2,completion,3,0,practice,102,in,lundi
1574949014,70018c31e40238d750a7ff40ea4d1eb2,completion,3,0,practice,102,_REACTION_TIME_,7993
1574949014,70018c31e40238d750a7ff40ea4d1eb2,completion,5,0,practice,101,in,réflechir
1574949014,70018c31e40238d750a7ff40ea4d1eb2,completion,5,0,practice,101,_REACTION_TIME_,11580
1574949014,70018c31e40238d750a7ff40ea4d1eb2,completion,4,0,practice,103,in,acidulées
1574949014,70018c31e40238d750a7ff40ea4d1eb2,completion,4,0,practice,103,_REACTION_TIME_,11778
1574949014,70018c31e40238d750a7ff40ea4d1eb2,completion,7,0,practice,32,in,43
1574949014,70018c31e40238d750a7ff40ea4d1eb2,completion,7,0,practice,32,_REACTION_TIME_,34105
1574949014,70018c31e40238d750a7ff40ea4d1eb2,completion,33,0,percep_high,23,in,90
1574949014,70018c31e40238d750a7ff40ea4d1eb2,completion,33,0,percep_high,23,_REACTION_TIME_,51345
1574949014,70018c31e40238d750a7ff40ea4d1eb2,completion,33,1,percep_high,23,in,allait embrasser une actrice
1574949014,70018c31e40238d750a7ff40ea4d1eb2,completion,33,1,percep_high,23,_REACTION_TIME_,30020
1574949014,70018c31e40238d750a7ff40ea4d1eb2,completion,23,0,percep_low,13,in,72
1574949014,70018c31e40238d750a7ff40ea4d1eb2,completion,23,0,percep_low,13,_REACTION_TIME_,76351
1574949014,70018c31e40238d750a7ff40ea4d1eb2,completion,23,1,percep_low,13,in,étaient assis sur le banc
1574949014,70018c31e40238d750a7ff40ea4d1eb2,completion,23,1,percep_low,13,_REACTION_TIME_,32308
1574949014,70018c31e40238d750a7ff40ea4d1eb2,completion,47,0,FM,39,in,25
1574949014,70018c31e40238d750a7ff40ea4d1eb2,completion,47,0,FM,39,_REACTION_TIME_,10496
1574949014,70018c31e40238d750a7ff40ea4d1eb2,completion,30,0,stat_low,20,in,73
1574949014,70018c31e40238d750a7ff40ea4d1eb2,completion,30,0,stat_low,20,_REACTION_TIME_,30662
1574949014,70018c31e40238d750a7ff40ea4d1eb2,completion,30,1,stat_low,20,in,voulait travailler sur un projet
1574949014,70018c31e40238d750a7ff40ea4d1eb2,completion,30,1,stat_low,20,_REACTION_TIME_,41011
1574949014,70018c31e40238d750a7ff40ea4d1eb2,completion,58,0,filler,65,in,a faire une mélodie
1574949014,70018c31e40238d750a7ff40ea4d1eb2,completion,58,0,filler,65,_REACTION_TIME_,25321
1574949014,70018c31e40238d750a7ff40ea4d1eb2,completion,14,0,stat_low,4,in,75
1574949014,70018c31e40238d750a7ff40ea4d1eb2,completion,14,0,stat_low,4,_REACTION_TIME_,22073
1574949014,70018c31e40238d750a7ff40ea4d1eb2,completion,14,1,stat_low,4,in,allait passer a une émission
1574949014,70018c31e40238d750a7ff40ea4d1eb2,completion,14,1,stat_low,4,_REACTION_TIME_,31911
1574949014,70018c31e40238d750a7ff40ea4d1eb2,completion,46,0,FM,38,in,21
1574949014,70018c31e40238d750a7ff40ea4d1eb2,completion,46,0,FM,38,_REACTION_TIME_,22618
1574949014,70018c31e40238d750a7ff40ea4d1eb2,completion,15,0,percep_low,5,in,95
1574949014,70018c31e40238d750a7ff40ea4d1eb2,completion,15,0,percep_low,5,_REACTION_TIME_,57485
1574949014,70018c31e40238d750a7ff40ea4d1eb2,completion,15,1,percep_low,5,in,allait l'aborder
1574949014,70018c31e40238d750a7ff40ea4d1eb2,completion,15,1,percep_low,5,_REACTION_TIME_,24824
1574949014,70018c31e40238d750a7ff40ea4d1eb2,completion,61,0,filler,68,in,une extinction de feu
1574949014,70018c31e40238d750a7ff40ea4d1eb2,completion,61,0,filler,68,_REACTION_TIME_,11470
1574949014,70018c31e40238d750a7ff40ea4d1eb2,completion,17,0,percep_high,7,in,81
1574949014,70018c31e40238d750a7ff40ea4d1eb2,completion,17,0,percep_high,7,_REACTION_TIME_,51330
1574949014,70018c31e40238d750a7ff40ea4d1eb2,completion,17,1,percep_high,7,in,étaient déchainés
1574949014,70018c31e40238d750a7ff40ea4d1eb2,completion,17,1,percep_high,7,_REACTION_TIME_,28383
1574949014,70018c31e40238d750a7ff40ea4d1eb2,completion,41,0,FM,33,in,9
1574949014,70018c31e40238d750a7ff40ea4d1eb2,completion,41,0,FM,33,_REACTION_TIME_,52028
1574949014,70018c31e40238d750a7ff40ea4d1eb2,completion,31,0,percep_low,21,in,87
1574949014,70018c31e40238d750a7ff40ea4d1eb2,completion,31,0,percep_low,21,_REACTION_TIME_,47897
1574949014,70018c31e40238d750a7ff40ea4d1eb2,completion,31,1,percep_low,21,in,allait faire une lourde erreur
1574949014,70018c31e40238d750a7ff40ea4d1eb2,completion,31,1,percep_low,21,_REACTION_TIME_,34831
1574949014,70018c31e40238d750a7ff40ea4d1eb2,completion,66,0,filler,73,in,mises
1574949014,70018c31e40238d750a7ff40ea4d1eb2,completion,66,0,filler,73,_REACTION_TIME_,7285
1574949014,70018c31e40238d750a7ff40ea4d1eb2,completion,26,0,stat_low,16,in,80
1574949014,70018c31e40238d750a7ff40ea4d1eb2,completion,26,0,stat_low,16,_REACTION_TIME_,31371
1574949014,70018c31e40238d750a7ff40ea4d1eb2,completion,26,1,stat_low,16,in,l'a emmener dans un restaurant raffiné
1574949014,70018c31e40238d750a7ff40ea4d1eb2,completion,26,1,stat_low,16,_REACTION_TIME_,26460
1574949014,70018c31e40238d750a7ff40ea4d1eb2,completion,43,0,FM,35,in,4
1574949014,70018c31e40238d750a7ff40ea4d1eb2,completion,43,0,FM,35,_REACTION_TIME_,25834
1574949014,70018c31e40238d750a7ff40ea4d1eb2,completion,34,0,stat_low,24,in,93
1574949014,70018c31e40238d750a7ff40ea4d1eb2,completion,34,0,stat_low,24,_REACTION_TIME_,37851
1574949014,70018c31e40238d750a7ff40ea4d1eb2,completion,34,1,stat_low,24,in,allait tomber malade
1574949014,70018c31e40238d750a7ff40ea4d1eb2,completion,34,1,stat_low,24,_REACTION_TIME_,32025
1574949014,70018c31e40238d750a7ff40ea4d1eb2,completion,48,0,FM,40,in,15
1574949014,70018c31e40238d750a7ff40ea4d1eb2,completion,48,0,FM,40,_REACTION_TIME_,26115
1574949014,70018c31e40238d750a7ff40ea4d1eb2,completion,37,0,percep_high,27,in,76
1574949014,70018c31e40238d750a7ff40ea4d1eb2,completion,37,0,percep_high,27,_REACTION_TIME_,39915
1574949014,70018c31e40238d750a7ff40ea4d1eb2,completion,37,1,percep_high,27,in,partait en mer
1574949014,70018c31e40238d750a7ff40ea4d1eb2,completion,37,1,percep_high,27,_REACTION_TIME_,15354
1574949014,70018c31e40238d750a7ff40ea4d1eb2,completion,49,0,FM,41,in,7
1574949014,70018c31e40238d750a7ff40ea4d1eb2,completion,49,0,FM,41,_REACTION_TIME_,19021
1574949014,70018c31e40238d750a7ff40ea4d1eb2,completion,28,0,stat_high,18,in,85
1574949014,70018c31e40238d750a7ff40ea4d1eb2,completion,28,0,stat_high,18,_REACTION_TIME_,84543
1574949014,70018c31e40238d750a7ff40ea4d1eb2,completion,28,1,stat_high,18,in,ont dormi ce week-end a la maison
1574949014,70018c31e40238d750a7ff40ea4d1eb2,completion,28,1,stat_high,18,_REACTION_TIME_,34588
1574949014,70018c31e40238d750a7ff40ea4d1eb2,completion,59,0,filler,66,in,son vol
1574949014,70018c31e40238d750a7ff40ea4d1eb2,completion,59,0,filler,66,_REACTION_TIME_,14923
1574949014,70018c31e40238d750a7ff40ea4d1eb2,completion,19,0,percep_low,9,in,82
1574949014,70018c31e40238d750a7ff40ea4d1eb2,completion,19,0,percep_low,9,_REACTION_TIME_,55142
1574949014,70018c31e40238d750a7ff40ea4d1eb2,completion,19,1,percep_low,9,in,ont fait la fete a l'ecole.
1574949014,70018c31e40238d750a7ff40ea4d1eb2,completion,19,1,percep_low,9,_REACTION_TIME_,46620
1574949014,70018c31e40238d750a7ff40ea4d1eb2,completion,53,0,filler,60,in,son cannoning
1574949014,70018c31e40238d750a7ff40ea4d1eb2,completion,53,0,filler,60,_REACTION_TIME_,24454
1574949014,70018c31e40238d750a7ff40ea4d1eb2,completion,18,0,stat_low,8,in,77
1574949014,70018c31e40238d750a7ff40ea4d1eb2,completion,18,0,stat_low,8,_REACTION_TIME_,49493
1574949014,70018c31e40238d750a7ff40ea4d1eb2,completion,18,1,stat_low,8,in,est venu en france
1574949014,70018c31e40238d750a7ff40ea4d1eb2,completion,18,1,stat_low,8,_REACTION_TIME_,30331
1574949014,70018c31e40238d750a7ff40ea4d1eb2,completion,50,0,FM,42,in,15
1574949014,70018c31e40238d750a7ff40ea4d1eb2,completion,50,0,FM,42,_REACTION_TIME_,23246
1574949014,70018c31e40238d750a7ff40ea4d1eb2,completion,29,0,percep_high,19,in,75
1574949014,70018c31e40238d750a7ff40ea4d1eb2,completion,29,0,percep_high,19,_REACTION_TIME_,34810
1574949014,70018c31e40238d750a7ff40ea4d1eb2,completion,29,1,percep_high,19,in,ont fini leur discours
1574949014,70018c31e40238d750a7ff40ea4d1eb2,completion,29,1,percep_high,19,_REACTION_TIME_,27825
1574949014,70018c31e40238d750a7ff40ea4d1eb2,completion,52,0,FM,44,in,8.5
1574949014,70018c31e40238d750a7ff40ea4d1eb2,completion,52,0,FM,44,_REACTION_TIME_,34626
1574949014,70018c31e40238d750a7ff40ea4d1eb2,completion,16,0,stat_high,6,in,75
1574949014,70018c31e40238d750a7ff40ea4d1eb2,completion,16,0,stat_high,6,_REACTION_TIME_,62868
1574949014,70018c31e40238d750a7ff40ea4d1eb2,completion,16,1,stat_high,6,in,allait faire une betise
1574949014,70018c31e40238d750a7ff40ea4d1eb2,completion,16,1,stat_high,6,_REACTION_TIME_,30762
1574949014,70018c31e40238d750a7ff40ea4d1eb2,completion,20,0,stat_high,10,in,65
1574949014,70018c31e40238d750a7ff40ea4d1eb2,completion,20,0,stat_high,10,_REACTION_TIME_,38611
1574949014,70018c31e40238d750a7ff40ea4d1eb2,completion,20,1,stat_high,10,in,sans arret l'embeter
1574949014,70018c31e40238d750a7ff40ea4d1eb2,completion,20,1,stat_high,10,_REACTION_TIME_,35501
1574949014,70018c31e40238d750a7ff40ea4d1eb2,completion,56,0,filler,63,in,vetements
1574949014,70018c31e40238d750a7ff40ea4d1eb2,completion,56,0,filler,63,_REACTION_TIME_,8879
1574949014,70018c31e40238d750a7ff40ea4d1eb2,completion,11,0,percep_low,1,in,92
1574949014,70018c31e40238d750a7ff40ea4d1eb2,completion,11,0,percep_low,1,_REACTION_TIME_,45815
1574949014,70018c31e40238d750a7ff40ea4d1eb2,completion,11,1,percep_low,1,in,l'ont énervés
1574949014,70018c31e40238d750a7ff40ea4d1eb2,completion,11,1,percep_low,1,_REACTION_TIME_,16876
1574949014,70018c31e40238d750a7ff40ea4d1eb2,completion,62,0,filler,69,in,s'entrainer a la salle de sport
1574949014,70018c31e40238d750a7ff40ea4d1eb2,completion,62,0,filler,69,_REACTION_TIME_,15680
1574949014,70018c31e40238d750a7ff40ea4d1eb2,completion,35,0,percep_low,25,in,84
1574949014,70018c31e40238d750a7ff40ea4d1eb2,completion,35,0,percep_low,25,_REACTION_TIME_,28990
1574949014,70018c31e40238d750a7ff40ea4d1eb2,completion,35,1,percep_low,25,in,l'ont emmener a la patinoire
1574949014,70018c31e40238d750a7ff40ea4d1eb2,completion,35,1,percep_low,25,_REACTION_TIME_,15360
1574949014,70018c31e40238d750a7ff40ea4d1eb2,completion,39,0,FM,31,in,13
1574949014,70018c31e40238d750a7ff40ea4d1eb2,completion,39,0,FM,31,_REACTION_TIME_,12719
1574949014,70018c31e40238d750a7ff40ea4d1eb2,completion,27,0,percep_low,17,in,91
1574949014,70018c31e40238d750a7ff40ea4d1eb2,completion,27,0,percep_low,17,_REACTION_TIME_,20060
1574949014,70018c31e40238d750a7ff40ea4d1eb2,completion,27,1,percep_low,17,in,était dans la manifestion des étudiants
1574949014,70018c31e40238d750a7ff40ea4d1eb2,completion,27,1,percep_low,17,_REACTION_TIME_,31549
1574949014,70018c31e40238d750a7ff40ea4d1eb2,completion,64,0,filler,71,in,vert
1574949014,70018c31e40238d750a7ff40ea4d1eb2,completion,64,0,filler,71,_REACTION_TIME_,5574
1574949014,70018c31e40238d750a7ff40ea4d1eb2,completion,32,0,stat_high,22,in,68
1574949014,70018c31e40238d750a7ff40ea4d1eb2,completion,32,0,stat_high,22,_REACTION_TIME_,26695
1574949014,70018c31e40238d750a7ff40ea4d1eb2,completion,32,1,stat_high,22,in,travaille a l'unicef
1574949014,70018c31e40238d750a7ff40ea4d1eb2,completion,32,1,stat_high,22,_REACTION_TIME_,22815
1574949014,70018c31e40238d750a7ff40ea4d1eb2,completion,55,0,filler,62,in,très metallique
1574949014,70018c31e40238d750a7ff40ea4d1eb2,completion,55,0,filler,62,_REACTION_TIME_,14091
1574949014,70018c31e40238d750a7ff40ea4d1eb2,completion,22,0,stat_low,12,in,68
1574949014,70018c31e40238d750a7ff40ea4d1eb2,completion,22,0,stat_low,12,_REACTION_TIME_,30337
1574949014,70018c31e40238d750a7ff40ea4d1eb2,completion,22,1,stat_low,12,in,est venu a Paris ilya pas longtemps
1574949014,70018c31e40238d750a7ff40ea4d1eb2,completion,22,1,stat_low,12,_REACTION_TIME_,39721
1574949014,70018c31e40238d750a7ff40ea4d1eb2,completion,57,0,filler,64,in,CINÉMA
1574949014,70018c31e40238d750a7ff40ea4d1eb2,completion,57,0,filler,64,_REACTION_TIME_,6402
1574949014,70018c31e40238d750a7ff40ea4d1eb2,completion,25,0,percep_high,15,in,83
1574949014,70018c31e40238d750a7ff40ea4d1eb2,completion,25,0,percep_high,15,_REACTION_TIME_,44729
1574949014,70018c31e40238d750a7ff40ea4d1eb2,completion,25,1,percep_high,15,in,étaient très sages et polis
1574949014,70018c31e40238d750a7ff40ea4d1eb2,completion,25,1,percep_high,15,_REACTION_TIME_,35782
1574949014,70018c31e40238d750a7ff40ea4d1eb2,completion,65,0,filler,72,in,sont très tactiles
1574949014,70018c31e40238d750a7ff40ea4d1eb2,completion,65,0,filler,72,_REACTION_TIME_,13325
1574949014,70018c31e40238d750a7ff40ea4d1eb2,completion,38,0,percep_high,28,in,75
1574949014,70018c31e40238d750a7ff40ea4d1eb2,completion,38,0,percep_high,28,_REACTION_TIME_,30987
1574949014,70018c31e40238d750a7ff40ea4d1eb2,completion,38,1,percep_high,28,in,était dans le peloton
1574949014,70018c31e40238d750a7ff40ea4d1eb2,completion,38,1,percep_high,28,_REACTION_TIME_,13323
1574949014,70018c31e40238d750a7ff40ea4d1eb2,completion,45,0,FM,37,in,7
1574949014,70018c31e40238d750a7ff40ea4d1eb2,completion,45,0,FM,37,_REACTION_TIME_,11955
1574949014,70018c31e40238d750a7ff40ea4d1eb2,completion,12,0,stat_high,2,in,80
1574949014,70018c31e40238d750a7ff40ea4d1eb2,completion,12,0,stat_high,2,_REACTION_TIME_,17971
1574949014,70018c31e40238d750a7ff40ea4d1eb2,completion,12,1,stat_high,2,in,s'entrainait a la course
1574949014,70018c31e40238d750a7ff40ea4d1eb2,completion,12,1,stat_high,2,_REACTION_TIME_,20845
1574949014,70018c31e40238d750a7ff40ea4d1eb2,completion,54,0,filler,61,in,vieux
1574949014,70018c31e40238d750a7ff40ea4d1eb2,completion,54,0,filler,61,_REACTION_TIME_,11301
1574949014,70018c31e40238d750a7ff40ea4d1eb2,completion,21,0,percep_high,11,in,62
1574949014,70018c31e40238d750a7ff40ea4d1eb2,completion,21,0,percep_high,11,_REACTION_TIME_,40722
1574949014,70018c31e40238d750a7ff40ea4d1eb2,completion,21,1,percep_high,11,in,partait guerrir 
1574949014,70018c31e40238d750a7ff40ea4d1eb2,completion,21,1,percep_high,11,_REACTION_TIME_,34376
1574949014,70018c31e40238d750a7ff40ea4d1eb2,completion,60,0,filler,67,in,leur ligne dans le ciel
1574949014,70018c31e40238d750a7ff40ea4d1eb2,completion,60,0,filler,67,_REACTION_TIME_,26724
1574949014,70018c31e40238d750a7ff40ea4d1eb2,completion,24,0,stat_high,14,in,72
1574949014,70018c31e40238d750a7ff40ea4d1eb2,completion,24,0,stat_high,14,_REACTION_TIME_,35558
1574949014,70018c31e40238d750a7ff40ea4d1eb2,completion,24,1,stat_high,14,in,chanter dans la salle
1574949014,70018c31e40238d750a7ff40ea4d1eb2,completion,24,1,stat_high,14,_REACTION_TIME_,15969
1574949014,70018c31e40238d750a7ff40ea4d1eb2,completion,44,0,FM,36,in,24
1574949014,70018c31e40238d750a7ff40ea4d1eb2,completion,44,0,FM,36,_REACTION_TIME_,45818
1574949014,70018c31e40238d750a7ff40ea4d1eb2,completion,36,0,stat_high,26,in,74
1574949014,70018c31e40238d750a7ff40ea4d1eb2,completion,36,0,stat_high,26,_REACTION_TIME_,48623
1574949014,70018c31e40238d750a7ff40ea4d1eb2,completion,36,1,stat_high,26,in,l'a inviter a boire un verre
1574949014,70018c31e40238d750a7ff40ea4d1eb2,completion,36,1,stat_high,26,_REACTION_TIME_,16795
1574949014,70018c31e40238d750a7ff40ea4d1eb2,completion,63,0,filler,70,in,exigente
1574949014,70018c31e40238d750a7ff40ea4d1eb2,completion,63,0,filler,70,_REACTION_TIME_,10379
1574949014,70018c31e40238d750a7ff40ea4d1eb2,completion,13,0,percep_high,3,in,76
1574949014,70018c31e40238d750a7ff40ea4d1eb2,completion,13,0,percep_high,3,_REACTION_TIME_,101839
1574949014,70018c31e40238d750a7ff40ea4d1eb2,completion,13,1,percep_high,3,in,ont gagner le gros lot
1574949014,70018c31e40238d750a7ff40ea4d1eb2,completion,13,1,percep_high,3,_REACTION_TIME_,22414
1574949014,70018c31e40238d750a7ff40ea4d1eb2,completion,51,0,FM,43,in,76
1574949014,70018c31e40238d750a7ff40ea4d1eb2,completion,51,0,FM,43,_REACTION_TIME_,21497
#
# Results on Thursday November 28 2019 14:10:42 UTC.
# USER AGENT: Mozilla/5.0 (X11; Ubuntu; Linux x86_64; rv:70.0) Gecko/20100101 Firefox/70.0
# Design number was non-random = 1
#
# Columns below this comment are as follows:
# 1. Time results were received.
# 2. MD5 hash of participant's IP address.
# 3. Controller name.
# 4. Item number.
# 5. Element number.
# 6. Type.
# 7. Group.
# 8. Field name.
# 9. Field value.
1574950242,c1ba0831ed40edb71f6bd4a2df2040bb,completion,2,0,intro,NULL,age,23
1574950242,c1ba0831ed40edb71f6bd4a2df2040bb,completion,2,0,intro,NULL,nationality,Francaise
1574950242,c1ba0831ed40edb71f6bd4a2df2040bb,completion,2,0,intro,NULL,activity,Arts Martiaux
1574950242,c1ba0831ed40edb71f6bd4a2df2040bb,completion,2,0,intro,NULL,birth,Bretagne
1574950242,c1ba0831ed40edb71f6bd4a2df2040bb,completion,2,0,intro,NULL,L1,Francais
1574950242,c1ba0831ed40edb71f6bd4a2df2040bb,completion,2,0,intro,NULL,L1,Aïkido
1574950242,c1ba0831ed40edb71f6bd4a2df2040bb,completion,2,0,intro,NULL,consent,yes
1574950242,c1ba0831ed40edb71f6bd4a2df2040bb,completion,2,0,intro,NULL,gender,male
1574950242,c1ba0831ed40edb71f6bd4a2df2040bb,completion,2,0,intro,NULL,academics,bac
1574950242,c1ba0831ed40edb71f6bd4a2df2040bb,completion,2,0,intro,NULL,_REACTION_TIME_,210081
1574950242,c1ba0831ed40edb71f6bd4a2df2040bb,completion,5,0,practice,101,in,peur
1574950242,c1ba0831ed40edb71f6bd4a2df2040bb,completion,5,0,practice,101,_REACTION_TIME_,17089
1574950242,c1ba0831ed40edb71f6bd4a2df2040bb,completion,9,0,practice,34,in,17
1574950242,c1ba0831ed40edb71f6bd4a2df2040bb,completion,9,0,practice,34,_REACTION_TIME_,14446
1574950242,c1ba0831ed40edb71f6bd4a2df2040bb,completion,3,0,practice,102,in,samedi
1574950242,c1ba0831ed40edb71f6bd4a2df2040bb,completion,3,0,practice,102,_REACTION_TIME_,6509
1574950242,c1ba0831ed40edb71f6bd4a2df2040bb,completion,4,0,practice,103,in,bonnes
1574950242,c1ba0831ed40edb71f6bd4a2df2040bb,completion,4,0,practice,103,_REACTION_TIME_,6043
1574950242,c1ba0831ed40edb71f6bd4a2df2040bb,completion,7,0,practice,32,in,43
1574950242,c1ba0831ed40edb71f6bd4a2df2040bb,completion,7,0,practice,32,_REACTION_TIME_,11201
1574950242,c1ba0831ed40edb71f6bd4a2df2040bb,completion,24,0,stat_high,14,in,81
1574950242,c1ba0831ed40edb71f6bd4a2df2040bb,completion,24,0,stat_high,14,_REACTION_TIME_,42330
1574950242,c1ba0831ed40edb71f6bd4a2df2040bb,completion,24,1,stat_high,14,in,parlait
1574950242,c1ba0831ed40edb71f6bd4a2df2040bb,completion,24,1,stat_high,14,_REACTION_TIME_,23209
1574950242,c1ba0831ed40edb71f6bd4a2df2040bb,completion,20,0,stat_high,10,in,0
1574950242,c1ba0831ed40edb71f6bd4a2df2040bb,completion,20,0,stat_high,10,_REACTION_TIME_,34156
1574950242,c1ba0831ed40edb71f6bd4a2df2040bb,completion,20,1,stat_high,10,in,militait
1574950242,c1ba0831ed40edb71f6bd4a2df2040bb,completion,20,1,stat_high,10,_REACTION_TIME_,15896
1574950242,c1ba0831ed40edb71f6bd4a2df2040bb,completion,52,0,FM,44,in,8%2C5
1574950242,c1ba0831ed40edb71f6bd4a2df2040bb,completion,52,0,FM,44,_REACTION_TIME_,75519
1574950242,c1ba0831ed40edb71f6bd4a2df2040bb,completion,16,0,stat_high,6,in,-22
1574950242,c1ba0831ed40edb71f6bd4a2df2040bb,completion,16,0,stat_high,6,_REACTION_TIME_,38083
1574950242,c1ba0831ed40edb71f6bd4a2df2040bb,completion,16,1,stat_high,6,in,assassinaient
1574950242,c1ba0831ed40edb71f6bd4a2df2040bb,completion,16,1,stat_high,6,_REACTION_TIME_,11576
1574950242,c1ba0831ed40edb71f6bd4a2df2040bb,completion,48,0,FM,40,in,15
1574950242,c1ba0831ed40edb71f6bd4a2df2040bb,completion,48,0,FM,40,_REACTION_TIME_,8344
1574950242,c1ba0831ed40edb71f6bd4a2df2040bb,completion,12,0,stat_high,2,in,17
1574950242,c1ba0831ed40edb71f6bd4a2df2040bb,completion,12,0,stat_high,2,_REACTION_TIME_,13222
1574950242,c1ba0831ed40edb71f6bd4a2df2040bb,completion,12,1,stat_high,2,in,gagnaient
1574950242,c1ba0831ed40edb71f6bd4a2df2040bb,completion,12,1,stat_high,2,_REACTION_TIME_,24203
1574950242,c1ba0831ed40edb71f6bd4a2df2040bb,completion,55,0,filler,62,in,super
1574950242,c1ba0831ed40edb71f6bd4a2df2040bb,completion,55,0,filler,62,_REACTION_TIME_,5856
1574950242,c1ba0831ed40edb71f6bd4a2df2040bb,completion,11,0,percep_low,1,in,129
1574950242,c1ba0831ed40edb71f6bd4a2df2040bb,completion,11,0,percep_low,1,_REACTION_TIME_,34911
1574950242,c1ba0831ed40edb71f6bd4a2df2040bb,completion,11,1,percep_low,1,in,le poursuivaient
1574950242,c1ba0831ed40edb71f6bd4a2df2040bb,completion,11,1,percep_low,1,_REACTION_TIME_,20633
1574950242,c1ba0831ed40edb71f6bd4a2df2040bb,completion,64,0,filler,71,in,amer
1574950242,c1ba0831ed40edb71f6bd4a2df2040bb,completion,64,0,filler,71,_REACTION_TIME_,4315
1574950242,c1ba0831ed40edb71f6bd4a2df2040bb,completion,37,0,percep_high,27,in,75
1574950242,c1ba0831ed40edb71f6bd4a2df2040bb,completion,37,0,percep_high,27,_REACTION_TIME_,7617
1574950242,c1ba0831ed40edb71f6bd4a2df2040bb,completion,37,1,percep_high,27,in,hurlait
1574950242,c1ba0831ed40edb71f6bd4a2df2040bb,completion,37,1,percep_high,27,_REACTION_TIME_,8579
1574950242,c1ba0831ed40edb71f6bd4a2df2040bb,completion,43,0,FM,35,in,4
1574950242,c1ba0831ed40edb71f6bd4a2df2040bb,completion,43,0,FM,35,_REACTION_TIME_,5740
1574950242,c1ba0831ed40edb71f6bd4a2df2040bb,completion,27,0,percep_low,17,in,104
1574950242,c1ba0831ed40edb71f6bd4a2df2040bb,completion,27,0,percep_low,17,_REACTION_TIME_,15827
1574950242,c1ba0831ed40edb71f6bd4a2df2040bb,completion,27,1,percep_low,17,in,courait
1574950242,c1ba0831ed40edb71f6bd4a2df2040bb,completion,27,1,percep_low,17,_REACTION_TIME_,12540
1574950242,c1ba0831ed40edb71f6bd4a2df2040bb,completion,50,0,FM,42,in,15
1574950242,c1ba0831ed40edb71f6bd4a2df2040bb,completion,50,0,FM,42,_REACTION_TIME_,36818
1574950242,c1ba0831ed40edb71f6bd4a2df2040bb,completion,25,0,percep_high,15,in,76
1574950242,c1ba0831ed40edb71f6bd4a2df2040bb,completion,25,0,percep_high,15,_REACTION_TIME_,31499
1574950242,c1ba0831ed40edb71f6bd4a2df2040bb,completion,25,1,percep_high,15,in,chantaient
1574950242,c1ba0831ed40edb71f6bd4a2df2040bb,completion,25,1,percep_high,15,_REACTION_TIME_,11754
1574950242,c1ba0831ed40edb71f6bd4a2df2040bb,completion,63,0,filler,70,in,chère
1574950242,c1ba0831ed40edb71f6bd4a2df2040bb,completion,63,0,filler,70,_REACTION_TIME_,6530
1574950242,c1ba0831ed40edb71f6bd4a2df2040bb,completion,17,0,percep_high,7,in,34
1574950242,c1ba0831ed40edb71f6bd4a2df2040bb,completion,17,0,percep_high,7,_REACTION_TIME_,13171
1574950242,c1ba0831ed40edb71f6bd4a2df2040bb,completion,17,1,percep_high,7,in,posaient
1574950242,c1ba0831ed40edb71f6bd4a2df2040bb,completion,17,1,percep_high,7,_REACTION_TIME_,7937
1574950242,c1ba0831ed40edb71f6bd4a2df2040bb,completion,65,0,filler,72,in,sont intelligents
1574950242,c1ba0831ed40edb71f6bd4a2df2040bb,completion,65,0,filler,72,_REACTION_TIME_,22634
1574950242,c1ba0831ed40edb71f6bd4a2df2040bb,completion,36,0,stat_high,26,in,63
1574950242,c1ba0831ed40edb71f6bd4a2df2040bb,completion,36,0,stat_high,26,_REACTION_TIME_,11556
1574950242,c1ba0831ed40edb71f6bd4a2df2040bb,completion,36,1,stat_high,26,in,est gentil
1574950242,c1ba0831ed40edb71f6bd4a2df2040bb,completion,36,1,stat_high,26,_REACTION_TIME_,29480
1574950242,c1ba0831ed40edb71f6bd4a2df2040bb,completion,56,0,filler,63,in,pizzas
1574950242,c1ba0831ed40edb71f6bd4a2df2040bb,completion,56,0,filler,63,_REACTION_TIME_,4377
1574950242,c1ba0831ed40edb71f6bd4a2df2040bb,completion,15,0,percep_low,5,in,46
1574950242,c1ba0831ed40edb71f6bd4a2df2040bb,completion,15,0,percep_low,5,_REACTION_TIME_,29138
1574950242,c1ba0831ed40edb71f6bd4a2df2040bb,completion,15,1,percep_low,5,in,oscultent
1574950242,c1ba0831ed40edb71f6bd4a2df2040bb,completion,15,1,percep_low,5,_REACTION_TIME_,12641
1574950242,c1ba0831ed40edb71f6bd4a2df2040bb,completion,51,0,FM,43,in,47
1574950242,c1ba0831ed40edb71f6bd4a2df2040bb,completion,51,0,FM,43,_REACTION_TIME_,9577
1574950242,c1ba0831ed40edb71f6bd4a2df2040bb,completion,33,0,percep_high,23,in,45
1574950242,c1ba0831ed40edb71f6bd4a2df2040bb,completion,33,0,percep_high,23,_REACTION_TIME_,8036
1574950242,c1ba0831ed40edb71f6bd4a2df2040bb,completion,33,1,percep_high,23,in,fumait
1574950242,c1ba0831ed40edb71f6bd4a2df2040bb,completion,33,1,percep_high,23,_REACTION_TIME_,11196
1574950242,c1ba0831ed40edb71f6bd4a2df2040bb,completion,39,0,FM,31,in,13
1574950242,c1ba0831ed40edb71f6bd4a2df2040bb,completion,39,0,FM,31,_REACTION_TIME_,6059
1574950242,c1ba0831ed40edb71f6bd4a2df2040bb,completion,21,0,percep_high,11,in,7
1574950242,c1ba0831ed40edb71f6bd4a2df2040bb,completion,21,0,percep_high,11,_REACTION_TIME_,21971
1574950242,c1ba0831ed40edb71f6bd4a2df2040bb,completion,21,1,percep_high,11,in,courait
1574950242,c1ba0831ed40edb71f6bd4a2df2040bb,completion,21,1,percep_high,11,_REACTION_TIME_,11803
1574950242,c1ba0831ed40edb71f6bd4a2df2040bb,completion,47,0,FM,39,in,25
1574950242,c1ba0831ed40edb71f6bd4a2df2040bb,completion,47,0,FM,39,_REACTION_TIME_,8563
1574950242,c1ba0831ed40edb71f6bd4a2df2040bb,completion,31,0,percep_low,21,in,161
1574950242,c1ba0831ed40edb71f6bd4a2df2040bb,completion,31,0,percep_low,21,_REACTION_TIME_,84067
1574950242,c1ba0831ed40edb71f6bd4a2df2040bb,completion,31,1,percep_low,21,in,fraudaient
1574950242,c1ba0831ed40edb71f6bd4a2df2040bb,completion,31,1,percep_low,21,_REACTION_TIME_,7736
1574950242,c1ba0831ed40edb71f6bd4a2df2040bb,completion,58,0,filler,65,in,a joué
1574950242,c1ba0831ed40edb71f6bd4a2df2040bb,completion,58,0,filler,65,_REACTION_TIME_,8636
1574950242,c1ba0831ed40edb71f6bd4a2df2040bb,completion,28,0,stat_high,18,in,9
1574950242,c1ba0831ed40edb71f6bd4a2df2040bb,completion,28,0,stat_high,18,_REACTION_TIME_,48291
1574950242,c1ba0831ed40edb71f6bd4a2df2040bb,completion,28,1,stat_high,18,in,fuguaient
1574950242,c1ba0831ed40edb71f6bd4a2df2040bb,completion,28,1,stat_high,18,_REACTION_TIME_,14203
1574950242,c1ba0831ed40edb71f6bd4a2df2040bb,completion,38,0,percep_high,28,in,86
1574950242,c1ba0831ed40edb71f6bd4a2df2040bb,completion,38,0,percep_high,28,_REACTION_TIME_,9003
1574950242,c1ba0831ed40edb71f6bd4a2df2040bb,completion,38,1,percep_high,28,in,buvait
1574950242,c1ba0831ed40edb71f6bd4a2df2040bb,completion,38,1,percep_high,28,_REACTION_TIME_,10489
1574950242,c1ba0831ed40edb71f6bd4a2df2040bb,completion,44,0,FM,36,in,24
1574950242,c1ba0831ed40edb71f6bd4a2df2040bb,completion,44,0,FM,36,_REACTION_TIME_,10724
1574950242,c1ba0831ed40edb71f6bd4a2df2040bb,completion,22,0,stat_low,12,in,93
1574950242,c1ba0831ed40edb71f6bd4a2df2040bb,completion,22,0,stat_low,12,_REACTION_TIME_,32698
1574950242,c1ba0831ed40edb71f6bd4a2df2040bb,completion,22,1,stat_low,12,in,flambe
1574950242,c1ba0831ed40edb71f6bd4a2df2040bb,completion,22,1,stat_low,12,_REACTION_TIME_,11973
1574950242,c1ba0831ed40edb71f6bd4a2df2040bb,completion,41,0,FM,33,in,9
1574950242,c1ba0831ed40edb71f6bd4a2df2040bb,completion,41,0,FM,33,_REACTION_TIME_,71659
1574950242,c1ba0831ed40edb71f6bd4a2df2040bb,completion,34,0,stat_low,24,in,139
1574950242,c1ba0831ed40edb71f6bd4a2df2040bb,completion,34,0,stat_low,24,_REACTION_TIME_,42571
1574950242,c1ba0831ed40edb71f6bd4a2df2040bb,completion,34,1,stat_low,24,in,dormaient
1574950242,c1ba0831ed40edb71f6bd4a2df2040bb,completion,34,1,stat_low,24,_REACTION_TIME_,7637
1574950242,c1ba0831ed40edb71f6bd4a2df2040bb,completion,62,0,filler,69,in,vites
1574950242,c1ba0831ed40edb71f6bd4a2df2040bb,completion,62,0,filler,69,_REACTION_TIME_,8587
1574950242,c1ba0831ed40edb71f6bd4a2df2040bb,completion,19,0,percep_low,9,in,29
1574950242,c1ba0831ed40edb71f6bd4a2df2040bb,completion,19,0,percep_low,9,_REACTION_TIME_,35620
1574950242,c1ba0831ed40edb71f6bd4a2df2040bb,completion,19,1,percep_low,9,in,révisent
1574950242,c1ba0831ed40edb71f6bd4a2df2040bb,completion,19,1,percep_low,9,_REACTION_TIME_,15242
1574950242,c1ba0831ed40edb71f6bd4a2df2040bb,completion,46,0,FM,38,in,21
1574950242,c1ba0831ed40edb71f6bd4a2df2040bb,completion,46,0,FM,38,_REACTION_TIME_,9236
1574950242,c1ba0831ed40edb71f6bd4a2df2040bb,completion,13,0,percep_high,3,in,13
1574950242,c1ba0831ed40edb71f6bd4a2df2040bb,completion,13,0,percep_high,3,_REACTION_TIME_,8819
1574950242,c1ba0831ed40edb71f6bd4a2df2040bb,completion,13,1,percep_high,3,in,jardinent
1574950242,c1ba0831ed40edb71f6bd4a2df2040bb,completion,13,1,percep_high,3,_REACTION_TIME_,19371
1574950242,c1ba0831ed40edb71f6bd4a2df2040bb,completion,60,0,filler,67,in,l'instinct
1574950242,c1ba0831ed40edb71f6bd4a2df2040bb,completion,60,0,filler,67,_REACTION_TIME_,12148
1574950242,c1ba0831ed40edb71f6bd4a2df2040bb,completion,30,0,stat_low,20,in,86
1574950242,c1ba0831ed40edb71f6bd4a2df2040bb,completion,30,0,stat_low,20,_REACTION_TIME_,7480
1574950242,c1ba0831ed40edb71f6bd4a2df2040bb,completion,30,1,stat_low,20,in,surveillaient
1574950242,c1ba0831ed40edb71f6bd4a2df2040bb,completion,30,1,stat_low,20,_REACTION_TIME_,15901
1574950242,c1ba0831ed40edb71f6bd4a2df2040bb,completion,59,0,filler,66,in,les gens
1574950242,c1ba0831ed40edb71f6bd4a2df2040bb,completion,59,0,filler,66,_REACTION_TIME_,8234
1574950242,c1ba0831ed40edb71f6bd4a2df2040bb,completion,29,0,percep_high,19,in,46
1574950242,c1ba0831ed40edb71f6bd4a2df2040bb,completion,29,0,percep_high,19,_REACTION_TIME_,20651
1574950242,c1ba0831ed40edb71f6bd4a2df2040bb,completion,29,1,percep_high,19,in,travaillent
1574950242,c1ba0831ed40edb71f6bd4a2df2040bb,completion,29,1,percep_high,19,_REACTION_TIME_,10083
1574950242,c1ba0831ed40edb71f6bd4a2df2040bb,completion,45,0,FM,37,in,7
1574950242,c1ba0831ed40edb71f6bd4a2df2040bb,completion,45,0,FM,37,_REACTION_TIME_,6157
1574950242,c1ba0831ed40edb71f6bd4a2df2040bb,completion,18,0,stat_low,8,in,142
1574950242,c1ba0831ed40edb71f6bd4a2df2040bb,completion,18,0,stat_low,8,_REACTION_TIME_,36628
1574950242,c1ba0831ed40edb71f6bd4a2df2040bb,completion,18,1,stat_low,8,in,batifolait
1574950242,c1ba0831ed40edb71f6bd4a2df2040bb,completion,18,1,stat_low,8,_REACTION_TIME_,13379
1574950242,c1ba0831ed40edb71f6bd4a2df2040bb,completion,66,0,filler,73,in,ajustées
1574950242,c1ba0831ed40edb71f6bd4a2df2040bb,completion,66,0,filler,73,_REACTION_TIME_,7546
1574950242,c1ba0831ed40edb71f6bd4a2df2040bb,completion,32,0,stat_high,22,in,-1
1574950242,c1ba0831ed40edb71f6bd4a2df2040bb,completion,32,0,stat_high,22,_REACTION_TIME_,17893
1574950242,c1ba0831ed40edb71f6bd4a2df2040bb,completion,32,1,stat_high,22,in,passait
1574950242,c1ba0831ed40edb71f6bd4a2df2040bb,completion,32,1,stat_high,22,_REACTION_TIME_,15572
1574950242,c1ba0831ed40edb71f6bd4a2df2040bb,completion,61,0,filler,68,in,partir
1574950242,c1ba0831ed40edb71f6bd4a2df2040bb,completion,61,0,filler,68,_REACTION_TIME_,6851
1574950242,c1ba0831ed40edb71f6bd4a2df2040bb,completion,23,0,percep_low,13,in,33
1574950242,c1ba0831ed40edb71f6bd4a2df2040bb,completion,23,0,percep_low,13,_REACTION_TIME_,52251
1574950242,c1ba0831ed40edb71f6bd4a2df2040bb,completion,23,1,percep_low,13,in,s'embrassaient
1574950242,c1ba0831ed40edb71f6bd4a2df2040bb,completion,23,1,percep_low,13,_REACTION_TIME_,7850
1574950242,c1ba0831ed40edb71f6bd4a2df2040bb,completion,57,0,filler,64,in,catéchisme
1574950242,c1ba0831ed40edb71f6bd4a2df2040bb,completion,57,0,filler,64,_REACTION_TIME_,6342
1574950242,c1ba0831ed40edb71f6bd4a2df2040bb,completion,14,0,stat_low,4,in,80
1574950242,c1ba0831ed40edb71f6bd4a2df2040bb,completion,14,0,stat_low,4,_REACTION_TIME_,12515
1574950242,c1ba0831ed40edb71f6bd4a2df2040bb,completion,14,1,stat_low,4,in,avance
1574950242,c1ba0831ed40edb71f6bd4a2df2040bb,completion,14,1,stat_low,4,_REACTION_TIME_,9562
1574950242,c1ba0831ed40edb71f6bd4a2df2040bb,completion,54,0,filler,61,in,boules
1574950242,c1ba0831ed40edb71f6bd4a2df2040bb,completion,54,0,filler,61,_REACTION_TIME_,4851
1574950242,c1ba0831ed40edb71f6bd4a2df2040bb,completion,35,0,percep_low,25,in,94
1574950242,c1ba0831ed40edb71f6bd4a2df2040bb,completion,35,0,percep_low,25,_REACTION_TIME_,14211
1574950242,c1ba0831ed40edb71f6bd4a2df2040bb,completion,35,1,percep_low,25,in,rentraient
1574950242,c1ba0831ed40edb71f6bd4a2df2040bb,completion,35,1,percep_low,25,_REACTION_TIME_,19444
1574950242,c1ba0831ed40edb71f6bd4a2df2040bb,completion,49,0,FM,41,in,62
1574950242,c1ba0831ed40edb71f6bd4a2df2040bb,completion,49,0,FM,41,_REACTION_TIME_,8563
1574950242,c1ba0831ed40edb71f6bd4a2df2040bb,completion,26,0,stat_low,16,in,93
1574950242,c1ba0831ed40edb71f6bd4a2df2040bb,completion,26,0,stat_low,16,_REACTION_TIME_,11196
1574950242,c1ba0831ed40edb71f6bd4a2df2040bb,completion,26,1,stat_low,16,in,cuisinait
1574950242,c1ba0831ed40edb71f6bd4a2df2040bb,completion,26,1,stat_low,16,_REACTION_TIME_,12995
1574950242,c1ba0831ed40edb71f6bd4a2df2040bb,completion,53,0,filler,60,in,le départ
1574950242,c1ba0831ed40edb71f6bd4a2df2040bb,completion,53,0,filler,60,_REACTION_TIME_,11179
#
# Results on Tuesday December 03 2019 09:44:12 UTC.
# USER AGENT: Mozilla/5.0 (X11; Ubuntu; Linux x86_64; rv:70.0) Gecko/20100101 Firefox/70.0
# Design number was non-random = 3
#
# Columns below this comment are as follows:
# 1. Time results were received.
# 2. MD5 hash of participant's IP address.
# 3. Controller name.
# 4. Item number.
# 5. Element number.
# 6. Type.
# 7. Group.
# 8. Field name.
# 9. Field value.
1575366252,c1ba0831ed40edb71f6bd4a2df2040bb,completion,2,0,intro,NULL,age,32
1575366252,c1ba0831ed40edb71f6bd4a2df2040bb,completion,2,0,intro,NULL,nationality,francaise
1575366252,c1ba0831ed40edb71f6bd4a2df2040bb,completion,2,0,intro,NULL,activity,sociologie
1575366252,c1ba0831ed40edb71f6bd4a2df2040bb,completion,2,0,intro,NULL,birth,Ile de france
1575366252,c1ba0831ed40edb71f6bd4a2df2040bb,completion,2,0,intro,NULL,L1,francais
1575366252,c1ba0831ed40edb71f6bd4a2df2040bb,completion,2,0,intro,NULL,L1,3103
1575366252,c1ba0831ed40edb71f6bd4a2df2040bb,completion,2,0,intro,NULL,consent,yes
1575366252,c1ba0831ed40edb71f6bd4a2df2040bb,completion,2,0,intro,NULL,gender,female
1575366252,c1ba0831ed40edb71f6bd4a2df2040bb,completion,2,0,intro,NULL,academics,M2
1575366252,c1ba0831ed40edb71f6bd4a2df2040bb,completion,2,0,intro,NULL,_REACTION_TIME_,624213
1575366252,c1ba0831ed40edb71f6bd4a2df2040bb,completion,7,0,practice,32,in,29
1575366252,c1ba0831ed40edb71f6bd4a2df2040bb,completion,7,0,practice,32,_REACTION_TIME_,14201
1575366252,c1ba0831ed40edb71f6bd4a2df2040bb,completion,9,0,practice,34,in,17
1575366252,c1ba0831ed40edb71f6bd4a2df2040bb,completion,9,0,practice,34,_REACTION_TIME_,11100
1575366252,c1ba0831ed40edb71f6bd4a2df2040bb,completion,3,0,practice,102,in,lundi
1575366252,c1ba0831ed40edb71f6bd4a2df2040bb,completion,3,0,practice,102,_REACTION_TIME_,6211
1575366252,c1ba0831ed40edb71f6bd4a2df2040bb,completion,5,0,practice,101,in,armes
1575366252,c1ba0831ed40edb71f6bd4a2df2040bb,completion,5,0,practice,101,_REACTION_TIME_,16731
1575366252,c1ba0831ed40edb71f6bd4a2df2040bb,completion,4,0,practice,103,in,délicieuses
1575366252,c1ba0831ed40edb71f6bd4a2df2040bb,completion,4,0,practice,103,_REACTION_TIME_,10756
1575366252,c1ba0831ed40edb71f6bd4a2df2040bb,completion,25,0,percep_high,15,in,170
1575366252,c1ba0831ed40edb71f6bd4a2df2040bb,completion,25,0,percep_high,15,_REACTION_TIME_,24483
1575366252,c1ba0831ed40edb71f6bd4a2df2040bb,completion,25,1,percep_high,15,in,vient de jouer
1575366252,c1ba0831ed40edb71f6bd4a2df2040bb,completion,25,1,percep_high,15,_REACTION_TIME_,23360
1575366252,c1ba0831ed40edb71f6bd4a2df2040bb,completion,30,0,stat_low,20,in,86
1575366252,c1ba0831ed40edb71f6bd4a2df2040bb,completion,30,0,stat_low,20,_REACTION_TIME_,12354
1575366252,c1ba0831ed40edb71f6bd4a2df2040bb,completion,30,1,stat_low,20,in,lui a confirmé la nouvelle
1575366252,c1ba0831ed40edb71f6bd4a2df2040bb,completion,30,1,stat_low,20,_REACTION_TIME_,21121
1575366252,c1ba0831ed40edb71f6bd4a2df2040bb,completion,64,0,filler,71,in,amer
1575366252,c1ba0831ed40edb71f6bd4a2df2040bb,completion,64,0,filler,71,_REACTION_TIME_,10118
1575366252,c1ba0831ed40edb71f6bd4a2df2040bb,completion,23,0,percep_low,13,in,127
1575366252,c1ba0831ed40edb71f6bd4a2df2040bb,completion,23,0,percep_low,13,_REACTION_TIME_,32075
1575366252,c1ba0831ed40edb71f6bd4a2df2040bb,completion,23,1,percep_low,13,in,souhaitaient partir
1575366252,c1ba0831ed40edb71f6bd4a2df2040bb,completion,23,1,percep_low,13,_REACTION_TIME_,41716
1575366252,c1ba0831ed40edb71f6bd4a2df2040bb,completion,45,0,FM,37,in,7
1575366252,c1ba0831ed40edb71f6bd4a2df2040bb,completion,45,0,FM,37,_REACTION_TIME_,5961
1575366252,c1ba0831ed40edb71f6bd4a2df2040bb,completion,31,0,percep_low,21,in,150
1575366252,c1ba0831ed40edb71f6bd4a2df2040bb,completion,31,0,percep_low,21,_REACTION_TIME_,30094
1575366252,c1ba0831ed40edb71f6bd4a2df2040bb,completion,31,1,percep_low,21,in,n'avaient rien à se reprocher
1575366252,c1ba0831ed40edb71f6bd4a2df2040bb,completion,31,1,percep_low,21,_REACTION_TIME_,36413
1575366252,c1ba0831ed40edb71f6bd4a2df2040bb,completion,43,0,FM,35,in,4
1575366252,c1ba0831ed40edb71f6bd4a2df2040bb,completion,43,0,FM,35,_REACTION_TIME_,9626
1575366252,c1ba0831ed40edb71f6bd4a2df2040bb,completion,12,0,stat_high,2,in,17
1575366252,c1ba0831ed40edb71f6bd4a2df2040bb,completion,12,0,stat_high,2,_REACTION_TIME_,15395
1575366252,c1ba0831ed40edb71f6bd4a2df2040bb,completion,12,1,stat_high,2,in,avait remportait le championnat
1575366252,c1ba0831ed40edb71f6bd4a2df2040bb,completion,12,1,stat_high,2,_REACTION_TIME_,38658
1575366252,c1ba0831ed40edb71f6bd4a2df2040bb,completion,47,0,FM,39,in,25
1575366252,c1ba0831ed40edb71f6bd4a2df2040bb,completion,47,0,FM,39,_REACTION_TIME_,9048
1575366252,c1ba0831ed40edb71f6bd4a2df2040bb,completion,22,0,stat_low,12,in,93
1575366252,c1ba0831ed40edb71f6bd4a2df2040bb,completion,22,0,stat_low,12,_REACTION_TIME_,15364
1575366252,c1ba0831ed40edb71f6bd4a2df2040bb,completion,22,1,stat_low,12,in,est une femme épatante
1575366252,c1ba0831ed40edb71f6bd4a2df2040bb,completion,22,1,stat_low,12,_REACTION_TIME_,29516
1575366252,c1ba0831ed40edb71f6bd4a2df2040bb,completion,58,0,filler,65,in,son morceau
1575366252,c1ba0831ed40edb71f6bd4a2df2040bb,completion,58,0,filler,65,_REACTION_TIME_,8051
1575366252,c1ba0831ed40edb71f6bd4a2df2040bb,completion,18,0,stat_low,8,in,144
1575366252,c1ba0831ed40edb71f6bd4a2df2040bb,completion,18,0,stat_low,8,_REACTION_TIME_,20123
1575366252,c1ba0831ed40edb71f6bd4a2df2040bb,completion,18,1,stat_low,8,in,partait à l'étranger
1575366252,c1ba0831ed40edb71f6bd4a2df2040bb,completion,18,1,stat_low,8,_REACTION_TIME_,103482
1575366252,c1ba0831ed40edb71f6bd4a2df2040bb,completion,54,0,filler,61,in,détente
1575366252,c1ba0831ed40edb71f6bd4a2df2040bb,completion,54,0,filler,61,_REACTION_TIME_,14035
1575366252,c1ba0831ed40edb71f6bd4a2df2040bb,completion,24,0,stat_high,14,in,26
1575366252,c1ba0831ed40edb71f6bd4a2df2040bb,completion,24,0,stat_high,14,_REACTION_TIME_,22257
1575366252,c1ba0831ed40edb71f6bd4a2df2040bb,completion,24,1,stat_high,14,in,s'étaient produits sur scène
1575366252,c1ba0831ed40edb71f6bd4a2df2040bb,completion,24,1,stat_high,14,_REACTION_TIME_,52675
1575366252,c1ba0831ed40edb71f6bd4a2df2040bb,completion,44,0,FM,36,in,14
1575366252,c1ba0831ed40edb71f6bd4a2df2040bb,completion,44,0,FM,36,_REACTION_TIME_,15482
1575366252,c1ba0831ed40edb71f6bd4a2df2040bb,completion,27,0,percep_low,17,in,104
1575366252,c1ba0831ed40edb71f6bd4a2df2040bb,completion,27,0,percep_low,17,_REACTION_TIME_,8434
1575366252,c1ba0831ed40edb71f6bd4a2df2040bb,completion,27,1,percep_low,17,in,disparaissait dans la foule
1575366252,c1ba0831ed40edb71f6bd4a2df2040bb,completion,27,1,percep_low,17,_REACTION_TIME_,19040
1575366252,c1ba0831ed40edb71f6bd4a2df2040bb,completion,62,0,filler,69,in,se reposer toute la soirée
1575366252,c1ba0831ed40edb71f6bd4a2df2040bb,completion,62,0,filler,69,_REACTION_TIME_,14164
1575366252,c1ba0831ed40edb71f6bd4a2df2040bb,completion,35,0,percep_low,25,in,94
1575366252,c1ba0831ed40edb71f6bd4a2df2040bb,completion,35,0,percep_low,25,_REACTION_TIME_,10243
1575366252,c1ba0831ed40edb71f6bd4a2df2040bb,completion,35,1,percep_low,25,in,ne l'ont pas beaucoup apprécié
1575366252,c1ba0831ed40edb71f6bd4a2df2040bb,completion,35,1,percep_low,25,_REACTION_TIME_,23268
1575366252,c1ba0831ed40edb71f6bd4a2df2040bb,completion,51,0,FM,43,in,57
1575366252,c1ba0831ed40edb71f6bd4a2df2040bb,completion,51,0,FM,43,_REACTION_TIME_,9985
1575366252,c1ba0831ed40edb71f6bd4a2df2040bb,completion,19,0,percep_low,9,in,153
1575366252,c1ba0831ed40edb71f6bd4a2df2040bb,completion,19,0,percep_low,9,_REACTION_TIME_,29260
1575366252,c1ba0831ed40edb71f6bd4a2df2040bb,completion,19,1,percep_low,9,in,l'avaient invité
1575366252,c1ba0831ed40edb71f6bd4a2df2040bb,completion,19,1,percep_low,9,_REACTION_TIME_,28917
1575366252,c1ba0831ed40edb71f6bd4a2df2040bb,completion,48,0,FM,40,in,15
1575366252,c1ba0831ed40edb71f6bd4a2df2040bb,completion,48,0,FM,40,_REACTION_TIME_,10593
1575366252,c1ba0831ed40edb71f6bd4a2df2040bb,completion,38,0,percep_high,28,in,86
1575366252,c1ba0831ed40edb71f6bd4a2df2040bb,completion,38,0,percep_high,28,_REACTION_TIME_,8722
1575366252,c1ba0831ed40edb71f6bd4a2df2040bb,completion,38,1,percep_high,28,in,avait remporté la course
1575366252,c1ba0831ed40edb71f6bd4a2df2040bb,completion,38,1,percep_high,28,_REACTION_TIME_,18681
1575366252,c1ba0831ed40edb71f6bd4a2df2040bb,completion,52,0,FM,44,in,21
1575366252,c1ba0831ed40edb71f6bd4a2df2040bb,completion,52,0,FM,44,_REACTION_TIME_,6763
1575366252,c1ba0831ed40edb71f6bd4a2df2040bb,completion,34,0,stat_low,24,in,149
1575366252,c1ba0831ed40edb71f6bd4a2df2040bb,completion,34,0,stat_low,24,_REACTION_TIME_,34323
1575366252,c1ba0831ed40edb71f6bd4a2df2040bb,completion,34,1,stat_low,24,in,était contre le projet.
1575366252,c1ba0831ed40edb71f6bd4a2df2040bb,completion,34,1,stat_low,24,_REACTION_TIME_,30835
1575366252,c1ba0831ed40edb71f6bd4a2df2040bb,completion,61,0,filler,68,in,le bal.
1575366252,c1ba0831ed40edb71f6bd4a2df2040bb,completion,61,0,filler,68,_REACTION_TIME_,13196
1575366252,c1ba0831ed40edb71f6bd4a2df2040bb,completion,14,0,stat_low,4,in,80
1575366252,c1ba0831ed40edb71f6bd4a2df2040bb,completion,14,0,stat_low,4,_REACTION_TIME_,12019
1575366252,c1ba0831ed40edb71f6bd4a2df2040bb,completion,14,1,stat_low,4,in,a remporté un oscar
1575366252,c1ba0831ed40edb71f6bd4a2df2040bb,completion,14,1,stat_low,4,_REACTION_TIME_,110545
1575366252,c1ba0831ed40edb71f6bd4a2df2040bb,completion,63,0,filler,70,in,étonnante
1575366252,c1ba0831ed40edb71f6bd4a2df2040bb,completion,63,0,filler,70,_REACTION_TIME_,23385
1575366252,c1ba0831ed40edb71f6bd4a2df2040bb,completion,15,0,percep_low,5,in,136
1575366252,c1ba0831ed40edb71f6bd4a2df2040bb,completion,15,0,percep_low,5,_REACTION_TIME_,16515
1575366252,c1ba0831ed40edb71f6bd4a2df2040bb,completion,15,1,percep_low,5,in,avait fait un malaise
1575366252,c1ba0831ed40edb71f6bd4a2df2040bb,completion,15,1,percep_low,5,_REACTION_TIME_,14356
1575366252,c1ba0831ed40edb71f6bd4a2df2040bb,completion,32,0,stat_high,22,in,-1
1575366252,c1ba0831ed40edb71f6bd4a2df2040bb,completion,32,0,stat_high,22,_REACTION_TIME_,23675
1575366252,c1ba0831ed40edb71f6bd4a2df2040bb,completion,32,1,stat_high,22,in,lui interdaisaient l'accès au réseau.
1575366252,c1ba0831ed40edb71f6bd4a2df2040bb,completion,32,1,stat_high,22,_REACTION_TIME_,26999
1575366252,c1ba0831ed40edb71f6bd4a2df2040bb,completion,56,0,filler,63,in,cadeaux
1575366252,c1ba0831ed40edb71f6bd4a2df2040bb,completion,56,0,filler,63,_REACTION_TIME_,7123
1575366252,c1ba0831ed40edb71f6bd4a2df2040bb,completion,21,0,percep_high,11,in,3
1575366252,c1ba0831ed40edb71f6bd4a2df2040bb,completion,21,0,percep_high,11,_REACTION_TIME_,22164
1575366252,c1ba0831ed40edb71f6bd4a2df2040bb,completion,21,1,percep_high,11,in,revenaient du front
1575366252,c1ba0831ed40edb71f6bd4a2df2040bb,completion,21,1,percep_high,11,_REACTION_TIME_,43883
1575366252,c1ba0831ed40edb71f6bd4a2df2040bb,completion,66,0,filler,73,in,mises.
1575366252,c1ba0831ed40edb71f6bd4a2df2040bb,completion,66,0,filler,73,_REACTION_TIME_,9243
1575366252,c1ba0831ed40edb71f6bd4a2df2040bb,completion,13,0,percep_high,3,in,13
1575366252,c1ba0831ed40edb71f6bd4a2df2040bb,completion,13,0,percep_high,3,_REACTION_TIME_,9723
1575366252,c1ba0831ed40edb71f6bd4a2df2040bb,completion,13,1,percep_high,3,in,parlait.
1575366252,c1ba0831ed40edb71f6bd4a2df2040bb,completion,13,1,percep_high,3,_REACTION_TIME_,37211
1575366252,c1ba0831ed40edb71f6bd4a2df2040bb,completion,39,0,FM,31,in,13
1575366252,c1ba0831ed40edb71f6bd4a2df2040bb,completion,39,0,FM,31,_REACTION_TIME_,5356
1575366252,c1ba0831ed40edb71f6bd4a2df2040bb,completion,36,0,stat_high,26,in,63
1575366252,c1ba0831ed40edb71f6bd4a2df2040bb,completion,36,0,stat_high,26,_REACTION_TIME_,18907
1575366252,c1ba0831ed40edb71f6bd4a2df2040bb,completion,36,1,stat_high,26,in,lui avait payé à boire.
1575366252,c1ba0831ed40edb71f6bd4a2df2040bb,completion,36,1,stat_high,26,_REACTION_TIME_,19771
1575366252,c1ba0831ed40edb71f6bd4a2df2040bb,completion,59,0,filler,66,in,toutes nos propositions.
1575366252,c1ba0831ed40edb71f6bd4a2df2040bb,completion,59,0,filler,66,_REACTION_TIME_,11781
1575366252,c1ba0831ed40edb71f6bd4a2df2040bb,completion,11,0,percep_low,1,in,129
1575366252,c1ba0831ed40edb71f6bd4a2df2040bb,completion,11,0,percep_low,1,_REACTION_TIME_,16081
1575366252,c1ba0831ed40edb71f6bd4a2df2040bb,completion,11,1,percep_low,1,in,l'attaquait en justice.
1575366252,c1ba0831ed40edb71f6bd4a2df2040bb,completion,11,1,percep_low,1,_REACTION_TIME_,19163
1575366252,c1ba0831ed40edb71f6bd4a2df2040bb,completion,65,0,filler,72,in,ne fonctionnent plus.
1575366252,c1ba0831ed40edb71f6bd4a2df2040bb,completion,65,0,filler,72,_REACTION_TIME_,39219
1575366252,c1ba0831ed40edb71f6bd4a2df2040bb,completion,33,0,percep_high,23,in,45
1575366252,c1ba0831ed40edb71f6bd4a2df2040bb,completion,33,0,percep_high,23,_REACTION_TIME_,16396
1575366252,c1ba0831ed40edb71f6bd4a2df2040bb,completion,33,1,percep_high,23,in,volait dans la caisse.
1575366252,c1ba0831ed40edb71f6bd4a2df2040bb,completion,33,1,percep_high,23,_REACTION_TIME_,21731
1575366252,c1ba0831ed40edb71f6bd4a2df2040bb,completion,55,0,filler,62,in,chouette.
1575366252,c1ba0831ed40edb71f6bd4a2df2040bb,completion,55,0,filler,62,_REACTION_TIME_,27788
1575366252,c1ba0831ed40edb71f6bd4a2df2040bb,completion,37,0,percep_high,27,in,75
1575366252,c1ba0831ed40edb71f6bd4a2df2040bb,completion,37,0,percep_high,27,_REACTION_TIME_,8507
1575366252,c1ba0831ed40edb71f6bd4a2df2040bb,completion,37,1,percep_high,27,in,partait.
1575366252,c1ba0831ed40edb71f6bd4a2df2040bb,completion,37,1,percep_high,27,_REACTION_TIME_,28860
1575366252,c1ba0831ed40edb71f6bd4a2df2040bb,completion,46,0,FM,38,in,21
1575366252,c1ba0831ed40edb71f6bd4a2df2040bb,completion,46,0,FM,38,_REACTION_TIME_,7331
1575366252,c1ba0831ed40edb71f6bd4a2df2040bb,completion,29,0,percep_high,19,in,46
1575366252,c1ba0831ed40edb71f6bd4a2df2040bb,completion,29,0,percep_high,19,_REACTION_TIME_,13244
1575366252,c1ba0831ed40edb71f6bd4a2df2040bb,completion,29,1,percep_high,19,in,ne savaient plus quoi faire
1575366252,c1ba0831ed40edb71f6bd4a2df2040bb,completion,29,1,percep_high,19,_REACTION_TIME_,22755
1575366252,c1ba0831ed40edb71f6bd4a2df2040bb,completion,49,0,FM,41,in,62
1575366252,c1ba0831ed40edb71f6bd4a2df2040bb,completion,49,0,FM,41,_REACTION_TIME_,14229
1575366252,c1ba0831ed40edb71f6bd4a2df2040bb,completion,16,0,stat_high,6,in,218
1575366252,c1ba0831ed40edb71f6bd4a2df2040bb,completion,16,0,stat_high,6,_REACTION_TIME_,15315
1575366252,c1ba0831ed40edb71f6bd4a2df2040bb,completion,16,1,stat_high,6,in,l'avaient torturé.
1575366252,c1ba0831ed40edb71f6bd4a2df2040bb,completion,16,1,stat_high,6,_REACTION_TIME_,17875
1575366252,c1ba0831ed40edb71f6bd4a2df2040bb,completion,53,0,filler,60,in,notre équipement
1575366252,c1ba0831ed40edb71f6bd4a2df2040bb,completion,53,0,filler,60,_REACTION_TIME_,13731
1575366252,c1ba0831ed40edb71f6bd4a2df2040bb,completion,26,0,stat_low,16,in,93
1575366252,c1ba0831ed40edb71f6bd4a2df2040bb,completion,26,0,stat_low,16,_REACTION_TIME_,12953
1575366252,c1ba0831ed40edb71f6bd4a2df2040bb,completion,26,1,stat_low,16,in,l'avait invitée.
1575366252,c1ba0831ed40edb71f6bd4a2df2040bb,completion,26,1,stat_low,16,_REACTION_TIME_,24282
1575366252,c1ba0831ed40edb71f6bd4a2df2040bb,completion,57,0,filler,64,in,cinéma.
1575366252,c1ba0831ed40edb71f6bd4a2df2040bb,completion,57,0,filler,64,_REACTION_TIME_,6052
1575366252,c1ba0831ed40edb71f6bd4a2df2040bb,completion,28,0,stat_high,18,in,9
1575366252,c1ba0831ed40edb71f6bd4a2df2040bb,completion,28,0,stat_high,18,_REACTION_TIME_,19412
1575366252,c1ba0831ed40edb71f6bd4a2df2040bb,completion,28,1,stat_high,18,in,avaient oublié leurs clés.
1575366252,c1ba0831ed40edb71f6bd4a2df2040bb,completion,28,1,stat_high,18,_REACTION_TIME_,30115
1575366252,c1ba0831ed40edb71f6bd4a2df2040bb,completion,41,0,FM,33,in,27
1575366252,c1ba0831ed40edb71f6bd4a2df2040bb,completion,41,0,FM,33,_REACTION_TIME_,7628
1575366252,c1ba0831ed40edb71f6bd4a2df2040bb,completion,17,0,percep_high,7,in,34
1575366252,c1ba0831ed40edb71f6bd4a2df2040bb,completion,17,0,percep_high,7,_REACTION_TIME_,13892
1575366252,c1ba0831ed40edb71f6bd4a2df2040bb,completion,17,1,percep_high,7,in,hurlaient devant la scène.
1575366252,c1ba0831ed40edb71f6bd4a2df2040bb,completion,17,1,percep_high,7,_REACTION_TIME_,22396
1575366252,c1ba0831ed40edb71f6bd4a2df2040bb,completion,50,0,FM,42,in,15
1575366252,c1ba0831ed40edb71f6bd4a2df2040bb,completion,50,0,FM,42,_REACTION_TIME_,6692
1575366252,c1ba0831ed40edb71f6bd4a2df2040bb,completion,20,0,stat_high,10,in,0
1575366252,c1ba0831ed40edb71f6bd4a2df2040bb,completion,20,0,stat_high,10,_REACTION_TIME_,32843
1575366252,c1ba0831ed40edb71f6bd4a2df2040bb,completion,20,1,stat_high,10,in,était un homme violent.
1575366252,c1ba0831ed40edb71f6bd4a2df2040bb,completion,20,1,stat_high,10,_REACTION_TIME_,31573
1575366252,c1ba0831ed40edb71f6bd4a2df2040bb,completion,60,0,filler,67,in,l'entraînement.
1575366252,c1ba0831ed40edb71f6bd4a2df2040bb,completion,60,0,filler,67,_REACTION_TIME_,18338
#
# Results on Tuesday December 03 2019 11:28:22 UTC.
# USER AGENT: Mozilla/5.0 (X11; Ubuntu; Linux x86_64; rv:70.0) Gecko/20100101 Firefox/70.0
# Design number was non-random = 4
#
# Columns below this comment are as follows:
# 1. Time results were received.
# 2. MD5 hash of participant's IP address.
# 3. Controller name.
# 4. Item number.
# 5. Element number.
# 6. Type.
# 7. Group.
# 8. Field name.
# 9. Field value.
1575372503,c1ba0831ed40edb71f6bd4a2df2040bb,completion,2,0,intro,NULL,age,24
1575372503,c1ba0831ed40edb71f6bd4a2df2040bb,completion,2,0,intro,NULL,nationality,Française
1575372503,c1ba0831ed40edb71f6bd4a2df2040bb,completion,2,0,intro,NULL,activity,Informatique
1575372503,c1ba0831ed40edb71f6bd4a2df2040bb,completion,2,0,intro,NULL,birth,Ile de France
1575372503,c1ba0831ed40edb71f6bd4a2df2040bb,completion,2,0,intro,NULL,L1,Français
1575372503,c1ba0831ed40edb71f6bd4a2df2040bb,completion,2,0,intro,NULL,L1,1945
1575372503,c1ba0831ed40edb71f6bd4a2df2040bb,completion,2,0,intro,NULL,consent,yes
1575372503,c1ba0831ed40edb71f6bd4a2df2040bb,completion,2,0,intro,NULL,gender,female
1575372503,c1ba0831ed40edb71f6bd4a2df2040bb,completion,2,0,intro,NULL,academics,M2
1575372503,c1ba0831ed40edb71f6bd4a2df2040bb,completion,2,0,intro,NULL,_REACTION_TIME_,2386354
1575372503,c1ba0831ed40edb71f6bd4a2df2040bb,completion,5,0,practice,101,in,leurs armes
1575372503,c1ba0831ed40edb71f6bd4a2df2040bb,completion,5,0,practice,101,_REACTION_TIME_,16792
1575372503,c1ba0831ed40edb71f6bd4a2df2040bb,completion,8,0,practice,33,in,28
1575372503,c1ba0831ed40edb71f6bd4a2df2040bb,completion,8,0,practice,33,_REACTION_TIME_,16586
1575372503,c1ba0831ed40edb71f6bd4a2df2040bb,completion,3,0,practice,102,in,dimanche
1575372503,c1ba0831ed40edb71f6bd4a2df2040bb,completion,3,0,practice,102,_REACTION_TIME_,5083
1575372503,c1ba0831ed40edb71f6bd4a2df2040bb,completion,4,0,practice,103,in,vertes
1575372503,c1ba0831ed40edb71f6bd4a2df2040bb,completion,4,0,practice,103,_REACTION_TIME_,7419
1575372503,c1ba0831ed40edb71f6bd4a2df2040bb,completion,10,0,practice,35,in,21
1575372503,c1ba0831ed40edb71f6bd4a2df2040bb,completion,10,0,practice,35,_REACTION_TIME_,10937
1575372503,c1ba0831ed40edb71f6bd4a2df2040bb,completion,6,0,practice,31,in,76
1575372503,c1ba0831ed40edb71f6bd4a2df2040bb,completion,6,0,practice,31,_REACTION_TIME_,10027
1575372503,c1ba0831ed40edb71f6bd4a2df2040bb,completion,23,0,percep_low,13,in,127
1575372503,c1ba0831ed40edb71f6bd4a2df2040bb,completion,23,0,percep_low,13,_REACTION_TIME_,60125
1575372503,c1ba0831ed40edb71f6bd4a2df2040bb,completion,23,1,percep_low,13,in,dansaient
1575372503,c1ba0831ed40edb71f6bd4a2df2040bb,completion,23,1,percep_low,13,_REACTION_TIME_,29603
1575372503,c1ba0831ed40edb71f6bd4a2df2040bb,completion,15,0,percep_low,5,in,136
1575372503,c1ba0831ed40edb71f6bd4a2df2040bb,completion,15,0,percep_low,5,_REACTION_TIME_,16075
1575372503,c1ba0831ed40edb71f6bd4a2df2040bb,completion,15,1,percep_low,5,in,l'examinait
1575372503,c1ba0831ed40edb71f6bd4a2df2040bb,completion,15,1,percep_low,5,_REACTION_TIME_,18817
1575372503,c1ba0831ed40edb71f6bd4a2df2040bb,completion,58,0,filler,65,in,son concert
1575372503,c1ba0831ed40edb71f6bd4a2df2040bb,completion,58,0,filler,65,_REACTION_TIME_,14156
1575372503,c1ba0831ed40edb71f6bd4a2df2040bb,completion,13,0,percep_high,3,in,13
1575372503,c1ba0831ed40edb71f6bd4a2df2040bb,completion,13,0,percep_high,3,_REACTION_TIME_,16739
1575372503,c1ba0831ed40edb71f6bd4a2df2040bb,completion,13,1,percep_high,3,in,prenaient une pause café
1575372503,c1ba0831ed40edb71f6bd4a2df2040bb,completion,13,1,percep_high,3,_REACTION_TIME_,41924
1575372503,c1ba0831ed40edb71f6bd4a2df2040bb,completion,53,0,filler,60,in,sa prochaine leçon
1575372503,c1ba0831ed40edb71f6bd4a2df2040bb,completion,53,0,filler,60,_REACTION_TIME_,14998
1575372503,c1ba0831ed40edb71f6bd4a2df2040bb,completion,12,0,stat_high,2,in,17
1575372503,c1ba0831ed40edb71f6bd4a2df2040bb,completion,12,0,stat_high,2,_REACTION_TIME_,8666
1575372503,c1ba0831ed40edb71f6bd4a2df2040bb,completion,12,1,stat_high,2,in,fanfaronnaient
1575372503,c1ba0831ed40edb71f6bd4a2df2040bb,completion,12,1,stat_high,2,_REACTION_TIME_,34817
1575372503,c1ba0831ed40edb71f6bd4a2df2040bb,completion,60,0,filler,67,in,les commandes de leur chef
1575372503,c1ba0831ed40edb71f6bd4a2df2040bb,completion,60,0,filler,67,_REACTION_TIME_,20883
1575372503,c1ba0831ed40edb71f6bd4a2df2040bb,completion,22,0,stat_low,12,in,57
1575372503,c1ba0831ed40edb71f6bd4a2df2040bb,completion,22,0,stat_low,12,_REACTION_TIME_,28827
1575372503,c1ba0831ed40edb71f6bd4a2df2040bb,completion,22,1,stat_low,12,in,s'avère être son père
1575372503,c1ba0831ed40edb71f6bd4a2df2040bb,completion,22,1,stat_low,12,_REACTION_TIME_,29874
1575372503,c1ba0831ed40edb71f6bd4a2df2040bb,completion,48,0,FM,40,in,15
1575372503,c1ba0831ed40edb71f6bd4a2df2040bb,completion,48,0,FM,40,_REACTION_TIME_,11328
1575372503,c1ba0831ed40edb71f6bd4a2df2040bb,completion,26,0,stat_low,16,in,93
1575372503,c1ba0831ed40edb71f6bd4a2df2040bb,completion,26,0,stat_low,16,_REACTION_TIME_,27835
1575372503,c1ba0831ed40edb71f6bd4a2df2040bb,completion,26,1,stat_low,16,in,lui plaisait
1575372503,c1ba0831ed40edb71f6bd4a2df2040bb,completion,26,1,stat_low,16,_REACTION_TIME_,19684
1575372503,c1ba0831ed40edb71f6bd4a2df2040bb,completion,46,0,FM,38,in,21
1575372503,c1ba0831ed40edb71f6bd4a2df2040bb,completion,46,0,FM,38,_REACTION_TIME_,11645
1575372503,c1ba0831ed40edb71f6bd4a2df2040bb,completion,19,0,percep_low,9,in,9
1575372503,c1ba0831ed40edb71f6bd4a2df2040bb,completion,19,0,percep_low,9,_REACTION_TIME_,17396
1575372503,c1ba0831ed40edb71f6bd4a2df2040bb,completion,19,1,percep_low,9,in,traînent avec son fils
1575372503,c1ba0831ed40edb71f6bd4a2df2040bb,completion,19,1,percep_low,9,_REACTION_TIME_,30729
1575372503,c1ba0831ed40edb71f6bd4a2df2040bb,completion,62,0,filler,69,in,à l'entraînement
1575372503,c1ba0831ed40edb71f6bd4a2df2040bb,completion,62,0,filler,69,_REACTION_TIME_,8082
1575372503,c1ba0831ed40edb71f6bd4a2df2040bb,completion,21,0,percep_high,11,in,3
1575372503,c1ba0831ed40edb71f6bd4a2df2040bb,completion,21,0,percep_high,11,_REACTION_TIME_,36349
1575372503,c1ba0831ed40edb71f6bd4a2df2040bb,completion,21,1,percep_high,11,in,s'étaient blessés au combat
1575372503,c1ba0831ed40edb71f6bd4a2df2040bb,completion,21,1,percep_high,11,_REACTION_TIME_,21819
1575372503,c1ba0831ed40edb71f6bd4a2df2040bb,completion,47,0,FM,39,in,25
1575372503,c1ba0831ed40edb71f6bd4a2df2040bb,completion,47,0,FM,39,_REACTION_TIME_,4437
1575372503,c1ba0831ed40edb71f6bd4a2df2040bb,completion,24,0,stat_high,14,in,36
1575372503,c1ba0831ed40edb71f6bd4a2df2040bb,completion,24,0,stat_high,14,_REACTION_TIME_,24930
1575372503,c1ba0831ed40edb71f6bd4a2df2040bb,completion,24,1,stat_high,14,in,se sont produits sur la scène de Bercy hier
1575372503,c1ba0831ed40edb71f6bd4a2df2040bb,completion,24,1,stat_high,14,_REACTION_TIME_,30411
1575372503,c1ba0831ed40edb71f6bd4a2df2040bb,completion,51,0,FM,43,in,57
1575372503,c1ba0831ed40edb71f6bd4a2df2040bb,completion,51,0,FM,43,_REACTION_TIME_,12458
1575372503,c1ba0831ed40edb71f6bd4a2df2040bb,completion,16,0,stat_high,6,in,-22
1575372503,c1ba0831ed40edb71f6bd4a2df2040bb,completion,16,0,stat_high,6,_REACTION_TIME_,49298
1575372503,c1ba0831ed40edb71f6bd4a2df2040bb,completion,16,1,stat_high,6,in,avaient assassiné sa femme et ses enfants
1575372503,c1ba0831ed40edb71f6bd4a2df2040bb,completion,16,1,stat_high,6,_REACTION_TIME_,22173
1575372503,c1ba0831ed40edb71f6bd4a2df2040bb,completion,28,0,stat_high,18,in,9
1575372503,c1ba0831ed40edb71f6bd4a2df2040bb,completion,28,0,stat_high,18,_REACTION_TIME_,14459
1575372503,c1ba0831ed40edb71f6bd4a2df2040bb,completion,28,1,stat_high,18,in,partait en voyage
1575372503,c1ba0831ed40edb71f6bd4a2df2040bb,completion,28,1,stat_high,18,_REACTION_TIME_,20932
1575372503,c1ba0831ed40edb71f6bd4a2df2040bb,completion,49,0,FM,41,in,62
1575372503,c1ba0831ed40edb71f6bd4a2df2040bb,completion,49,0,FM,41,_REACTION_TIME_,9347
1575372503,c1ba0831ed40edb71f6bd4a2df2040bb,completion,37,0,percep_high,27,in,75
1575372503,c1ba0831ed40edb71f6bd4a2df2040bb,completion,37,0,percep_high,27,_REACTION_TIME_,5953
1575372503,c1ba0831ed40edb71f6bd4a2df2040bb,completion,37,1,percep_high,27,in,donnait ses ordres
1575372503,c1ba0831ed40edb71f6bd4a2df2040bb,completion,37,1,percep_high,27,_REACTION_TIME_,28489
1575372503,c1ba0831ed40edb71f6bd4a2df2040bb,completion,55,0,filler,62,in,un genre musical
1575372503,c1ba0831ed40edb71f6bd4a2df2040bb,completion,55,0,filler,62,_REACTION_TIME_,17163
1575372503,c1ba0831ed40edb71f6bd4a2df2040bb,completion,27,0,percep_low,17,in,104
1575372503,c1ba0831ed40edb71f6bd4a2df2040bb,completion,27,0,percep_low,17,_REACTION_TIME_,13164
1575372503,c1ba0831ed40edb71f6bd4a2df2040bb,completion,27,1,percep_low,17,in,montait sur l'échaffaudage
1575372503,c1ba0831ed40edb71f6bd4a2df2040bb,completion,27,1,percep_low,17,_REACTION_TIME_,20532
1575372503,c1ba0831ed40edb71f6bd4a2df2040bb,completion,54,0,filler,61,in,vieux
1575372503,c1ba0831ed40edb71f6bd4a2df2040bb,completion,54,0,filler,61,_REACTION_TIME_,14405
1575372503,c1ba0831ed40edb71f6bd4a2df2040bb,completion,25,0,percep_high,15,in,76
1575372503,c1ba0831ed40edb71f6bd4a2df2040bb,completion,25,0,percep_high,15,_REACTION_TIME_,17292
1575372503,c1ba0831ed40edb71f6bd4a2df2040bb,completion,25,1,percep_high,15,in,dormaient
1575372503,c1ba0831ed40edb71f6bd4a2df2040bb,completion,25,1,percep_high,15,_REACTION_TIME_,11938
1575372503,c1ba0831ed40edb71f6bd4a2df2040bb,completion,42,0,FM,34,in,28
1575372503,c1ba0831ed40edb71f6bd4a2df2040bb,completion,42,0,FM,34,_REACTION_TIME_,10745
1575372503,c1ba0831ed40edb71f6bd4a2df2040bb,completion,34,0,stat_low,24,in,131
1575372503,c1ba0831ed40edb71f6bd4a2df2040bb,completion,34,0,stat_low,24,_REACTION_TIME_,11803
1575372503,c1ba0831ed40edb71f6bd4a2df2040bb,completion,34,1,stat_low,24,in,était un vieux sénile
1575372503,c1ba0831ed40edb71f6bd4a2df2040bb,completion,34,1,stat_low,24,_REACTION_TIME_,20123
1575372503,c1ba0831ed40edb71f6bd4a2df2040bb,completion,44,0,FM,36,in,24
1575372503,c1ba0831ed40edb71f6bd4a2df2040bb,completion,44,0,FM,36,_REACTION_TIME_,13219
1575372503,c1ba0831ed40edb71f6bd4a2df2040bb,completion,35,0,percep_low,25,in,94
1575372503,c1ba0831ed40edb71f6bd4a2df2040bb,completion,35,0,percep_low,25,_REACTION_TIME_,12922
1575372503,c1ba0831ed40edb71f6bd4a2df2040bb,completion,35,1,percep_low,25,in,sont sur-protecteurs
1575372503,c1ba0831ed40edb71f6bd4a2df2040bb,completion,35,1,percep_low,25,_REACTION_TIME_,16596
1575372503,c1ba0831ed40edb71f6bd4a2df2040bb,completion,66,0,filler,73,in,mises
1575372503,c1ba0831ed40edb71f6bd4a2df2040bb,completion,66,0,filler,73,_REACTION_TIME_,9339
1575372503,c1ba0831ed40edb71f6bd4a2df2040bb,completion,20,0,stat_high,10,in,-10
1575372503,c1ba0831ed40edb71f6bd4a2df2040bb,completion,20,0,stat_high,10,_REACTION_TIME_,33236
1575372503,c1ba0831ed40edb71f6bd4a2df2040bb,completion,20,1,stat_high,10,in,qui devenait trop autoritaire
1575372503,c1ba0831ed40edb71f6bd4a2df2040bb,completion,20,1,stat_high,10,_REACTION_TIME_,31450
1575372503,c1ba0831ed40edb71f6bd4a2df2040bb,completion,59,0,filler,66,in,toute forme de changement
1575372503,c1ba0831ed40edb71f6bd4a2df2040bb,completion,59,0,filler,66,_REACTION_TIME_,35516
1575372503,c1ba0831ed40edb71f6bd4a2df2040bb,completion,30,0,stat_low,20,in,86
1575372503,c1ba0831ed40edb71f6bd4a2df2040bb,completion,30,0,stat_low,20,_REACTION_TIME_,8924
1575372503,c1ba0831ed40edb71f6bd4a2df2040bb,completion,30,1,stat_low,20,in,souhaite l'embaucher
1575372503,c1ba0831ed40edb71f6bd4a2df2040bb,completion,30,1,stat_low,20,_REACTION_TIME_,24460
1575372503,c1ba0831ed40edb71f6bd4a2df2040bb,completion,61,0,filler,68,in,une démonstration
1575372503,c1ba0831ed40edb71f6bd4a2df2040bb,completion,61,0,filler,68,_REACTION_TIME_,16891
1575372503,c1ba0831ed40edb71f6bd4a2df2040bb,completion,31,0,percep_low,21,in,151
1575372503,c1ba0831ed40edb71f6bd4a2df2040bb,completion,31,0,percep_low,21,_REACTION_TIME_,22691
1575372503,c1ba0831ed40edb71f6bd4a2df2040bb,completion,31,1,percep_low,21,in,mijotaient quelque chose
1575372503,c1ba0831ed40edb71f6bd4a2df2040bb,completion,31,1,percep_low,21,_REACTION_TIME_,34036
1575372503,c1ba0831ed40edb71f6bd4a2df2040bb,completion,36,0,stat_high,26,in,63
1575372503,c1ba0831ed40edb71f6bd4a2df2040bb,completion,36,0,stat_high,26,_REACTION_TIME_,21569
1575372503,c1ba0831ed40edb71f6bd4a2df2040bb,completion,36,1,stat_high,26,in,est intéressé par le produire
1575372503,c1ba0831ed40edb71f6bd4a2df2040bb,completion,36,1,stat_high,26,_REACTION_TIME_,18540
1575372503,c1ba0831ed40edb71f6bd4a2df2040bb,completion,45,0,FM,37,in,7
1575372503,c1ba0831ed40edb71f6bd4a2df2040bb,completion,45,0,FM,37,_REACTION_TIME_,5476
1575372503,c1ba0831ed40edb71f6bd4a2df2040bb,completion,33,0,percep_high,23,in,45
1575372503,c1ba0831ed40edb71f6bd4a2df2040bb,completion,33,0,percep_high,23,_REACTION_TIME_,15140
1575372503,c1ba0831ed40edb71f6bd4a2df2040bb,completion,33,1,percep_high,23,in,trafficotait avec la concurrence
1575372503,c1ba0831ed40edb71f6bd4a2df2040bb,completion,33,1,percep_high,23,_REACTION_TIME_,20171
1575372503,c1ba0831ed40edb71f6bd4a2df2040bb,completion,52,0,FM,44,in,21
1575372503,c1ba0831ed40edb71f6bd4a2df2040bb,completion,52,0,FM,44,_REACTION_TIME_,7027
1575372503,c1ba0831ed40edb71f6bd4a2df2040bb,completion,38,0,percep_high,28,in,86
1575372503,c1ba0831ed40edb71f6bd4a2df2040bb,completion,38,0,percep_high,28,_REACTION_TIME_,6669
1575372503,c1ba0831ed40edb71f6bd4a2df2040bb,completion,38,1,percep_high,28,in,ont participé au tour de France
1575372503,c1ba0831ed40edb71f6bd4a2df2040bb,completion,38,1,percep_high,28,_REACTION_TIME_,35131
1575372503,c1ba0831ed40edb71f6bd4a2df2040bb,completion,50,0,FM,42,in,15
1575372503,c1ba0831ed40edb71f6bd4a2df2040bb,completion,50,0,FM,42,_REACTION_TIME_,8308
1575372503,c1ba0831ed40edb71f6bd4a2df2040bb,completion,17,0,percep_high,7,in,41
1575372503,c1ba0831ed40edb71f6bd4a2df2040bb,completion,17,0,percep_high,7,_REACTION_TIME_,13162
1575372503,c1ba0831ed40edb71f6bd4a2df2040bb,completion,17,1,percep_high,7,in,étaient au premier rang
1575372503,c1ba0831ed40edb71f6bd4a2df2040bb,completion,17,1,percep_high,7,_REACTION_TIME_,13899
1575372503,c1ba0831ed40edb71f6bd4a2df2040bb,completion,65,0,filler,72,in,sont interdits
1575372503,c1ba0831ed40edb71f6bd4a2df2040bb,completion,65,0,filler,72,_REACTION_TIME_,9332
1575372503,c1ba0831ed40edb71f6bd4a2df2040bb,completion,29,0,percep_high,19,in,46
1575372503,c1ba0831ed40edb71f6bd4a2df2040bb,completion,29,0,percep_high,19,_REACTION_TIME_,15851
1575372503,c1ba0831ed40edb71f6bd4a2df2040bb,completion,29,1,percep_high,19,in,souhaite augmenter leurs payes
1575372503,c1ba0831ed40edb71f6bd4a2df2040bb,completion,29,1,percep_high,19,_REACTION_TIME_,40299
1575372503,c1ba0831ed40edb71f6bd4a2df2040bb,completion,56,0,filler,63,in,patates
1575372503,c1ba0831ed40edb71f6bd4a2df2040bb,completion,56,0,filler,63,_REACTION_TIME_,14571
1575372503,c1ba0831ed40edb71f6bd4a2df2040bb,completion,32,0,stat_high,22,in,-1
1575372503,c1ba0831ed40edb71f6bd4a2df2040bb,completion,32,0,stat_high,22,_REACTION_TIME_,20235
1575372503,c1ba0831ed40edb71f6bd4a2df2040bb,completion,32,1,stat_high,22,in,prenait trop de pause café
1575372503,c1ba0831ed40edb71f6bd4a2df2040bb,completion,32,1,stat_high,22,_REACTION_TIME_,15170
1575372503,c1ba0831ed40edb71f6bd4a2df2040bb,completion,57,0,filler,64,in,supermarché
1575372503,c1ba0831ed40edb71f6bd4a2df2040bb,completion,57,0,filler,64,_REACTION_TIME_,5875
1575372503,c1ba0831ed40edb71f6bd4a2df2040bb,completion,14,0,stat_low,4,in,80
1575372503,c1ba0831ed40edb71f6bd4a2df2040bb,completion,14,0,stat_low,4,_REACTION_TIME_,9316
1575372503,c1ba0831ed40edb71f6bd4a2df2040bb,completion,14,1,stat_low,4,in,est dans tous les magazines people en ce moment
1575372503,c1ba0831ed40edb71f6bd4a2df2040bb,completion,14,1,stat_low,4,_REACTION_TIME_,42164
1575372503,c1ba0831ed40edb71f6bd4a2df2040bb,completion,63,0,filler,70,in,rétro
1575372503,c1ba0831ed40edb71f6bd4a2df2040bb,completion,63,0,filler,70,_REACTION_TIME_,5227
1575372503,c1ba0831ed40edb71f6bd4a2df2040bb,completion,11,0,percep_low,1,in,59
1575372503,c1ba0831ed40edb71f6bd4a2df2040bb,completion,11,0,percep_low,1,_REACTION_TIME_,9964
1575372503,c1ba0831ed40edb71f6bd4a2df2040bb,completion,11,1,percep_low,1,in,avait fraudé
1575372503,c1ba0831ed40edb71f6bd4a2df2040bb,completion,11,1,percep_low,1,_REACTION_TIME_,14396
1575372503,c1ba0831ed40edb71f6bd4a2df2040bb,completion,40,0,FM,32,in,12
1575372503,c1ba0831ed40edb71f6bd4a2df2040bb,completion,40,0,FM,32,_REACTION_TIME_,11426
1575372503,c1ba0831ed40edb71f6bd4a2df2040bb,completion,18,0,stat_low,8,in,16
1575372503,c1ba0831ed40edb71f6bd4a2df2040bb,completion,18,0,stat_low,8,_REACTION_TIME_,18500
1575372503,c1ba0831ed40edb71f6bd4a2df2040bb,completion,18,1,stat_low,8,in,étudiaient les sciences sous-marines
1575372503,c1ba0831ed40edb71f6bd4a2df2040bb,completion,18,1,stat_low,8,_REACTION_TIME_,41155
1575372503,c1ba0831ed40edb71f6bd4a2df2040bb,completion,64,0,filler,71,in,de rose
1575372503,c1ba0831ed40edb71f6bd4a2df2040bb,completion,64,0,filler,71,_REACTION_TIME_,7522
#
# Results on Tuesday December 03 2019 12:35:26 UTC.
# USER AGENT: Mozilla/5.0 (X11; Ubuntu; Linux x86_64; rv:70.0) Gecko/20100101 Firefox/70.0
# Design number was non-random = 5
#
# Columns below this comment are as follows:
# 1. Time results were received.
# 2. MD5 hash of participant's IP address.
# 3. Controller name.
# 4. Item number.
# 5. Element number.
# 6. Type.
# 7. Group.
# 8. Field name.
# 9. Field value.
1575376526,c1ba0831ed40edb71f6bd4a2df2040bb,completion,2,0,intro,NULL,age,18
1575376526,c1ba0831ed40edb71f6bd4a2df2040bb,completion,2,0,intro,NULL,nationality,française
1575376526,c1ba0831ed40edb71f6bd4a2df2040bb,completion,2,0,intro,NULL,activity,lettres
1575376526,c1ba0831ed40edb71f6bd4a2df2040bb,completion,2,0,intro,NULL,birth,val d'oise 
1575376526,c1ba0831ed40edb71f6bd4a2df2040bb,completion,2,0,intro,NULL,L1,français
1575376526,c1ba0831ed40edb71f6bd4a2df2040bb,completion,2,0,intro,NULL,L1,3287
1575376526,c1ba0831ed40edb71f6bd4a2df2040bb,completion,2,0,intro,NULL,consent,yes
1575376526,c1ba0831ed40edb71f6bd4a2df2040bb,completion,2,0,intro,NULL,gender,female
1575376526,c1ba0831ed40edb71f6bd4a2df2040bb,completion,2,0,intro,NULL,academics,bac
1575376526,c1ba0831ed40edb71f6bd4a2df2040bb,completion,2,0,intro,NULL,_REACTION_TIME_,83567
1575376526,c1ba0831ed40edb71f6bd4a2df2040bb,completion,4,0,practice,103,in,bonnes
1575376526,c1ba0831ed40edb71f6bd4a2df2040bb,completion,4,0,practice,103,_REACTION_TIME_,24965
1575376526,c1ba0831ed40edb71f6bd4a2df2040bb,completion,3,0,practice,102,in,mardi
1575376526,c1ba0831ed40edb71f6bd4a2df2040bb,completion,3,0,practice,102,_REACTION_TIME_,7465
1575376526,c1ba0831ed40edb71f6bd4a2df2040bb,completion,9,0,practice,34,in,17
1575376526,c1ba0831ed40edb71f6bd4a2df2040bb,completion,9,0,practice,34,_REACTION_TIME_,12896
1575376526,c1ba0831ed40edb71f6bd4a2df2040bb,completion,7,0,practice,32,in,61
1575376526,c1ba0831ed40edb71f6bd4a2df2040bb,completion,7,0,practice,32,_REACTION_TIME_,29802
1575376526,c1ba0831ed40edb71f6bd4a2df2040bb,completion,5,0,practice,101,in,armes
1575376526,c1ba0831ed40edb71f6bd4a2df2040bb,completion,5,0,practice,101,_REACTION_TIME_,12555
1575376526,c1ba0831ed40edb71f6bd4a2df2040bb,completion,25,0,percep_high,15,in,224
1575376526,c1ba0831ed40edb71f6bd4a2df2040bb,completion,25,0,percep_high,15,_REACTION_TIME_,61092
1575376526,c1ba0831ed40edb71f6bd4a2df2040bb,completion,25,1,percep_high,15,in,dansent
1575376526,c1ba0831ed40edb71f6bd4a2df2040bb,completion,25,1,percep_high,15,_REACTION_TIME_,11778
1575376526,c1ba0831ed40edb71f6bd4a2df2040bb,completion,47,0,FM,39,in,25
1575376526,c1ba0831ed40edb71f6bd4a2df2040bb,completion,47,0,FM,39,_REACTION_TIME_,13643
1575376526,c1ba0831ed40edb71f6bd4a2df2040bb,completion,27,0,percep_low,17,in,382
1575376526,c1ba0831ed40edb71f6bd4a2df2040bb,completion,27,0,percep_low,17,_REACTION_TIME_,40042
1575376526,c1ba0831ed40edb71f6bd4a2df2040bb,completion,27,1,percep_low,17,in,hurlait
1575376526,c1ba0831ed40edb71f6bd4a2df2040bb,completion,27,1,percep_low,17,_REACTION_TIME_,8199
1575376526,c1ba0831ed40edb71f6bd4a2df2040bb,completion,55,0,filler,62,in,amusant
1575376526,c1ba0831ed40edb71f6bd4a2df2040bb,completion,55,0,filler,62,_REACTION_TIME_,10028
1575376526,c1ba0831ed40edb71f6bd4a2df2040bb,completion,23,0,percep_low,13,in,201
1575376526,c1ba0831ed40edb71f6bd4a2df2040bb,completion,23,0,percep_low,13,_REACTION_TIME_,34026
1575376526,c1ba0831ed40edb71f6bd4a2df2040bb,completion,23,1,percep_low,13,in,dansaient
1575376526,c1ba0831ed40edb71f6bd4a2df2040bb,completion,23,1,percep_low,13,_REACTION_TIME_,17371
1575376526,c1ba0831ed40edb71f6bd4a2df2040bb,completion,49,0,FM,41,in,78
1575376526,c1ba0831ed40edb71f6bd4a2df2040bb,completion,49,0,FM,41,_REACTION_TIME_,85205
1575376526,c1ba0831ed40edb71f6bd4a2df2040bb,completion,31,0,percep_low,21,in,124
1575376526,c1ba0831ed40edb71f6bd4a2df2040bb,completion,31,0,percep_low,21,_REACTION_TIME_,54858
1575376526,c1ba0831ed40edb71f6bd4a2df2040bb,completion,31,1,percep_low,21,in,chuchutaient
1575376526,c1ba0831ed40edb71f6bd4a2df2040bb,completion,31,1,percep_low,21,_REACTION_TIME_,21713
1575376526,c1ba0831ed40edb71f6bd4a2df2040bb,completion,52,0,FM,44,in,8.5
1575376526,c1ba0831ed40edb71f6bd4a2df2040bb,completion,52,0,FM,44,_REACTION_TIME_,39899
1575376526,c1ba0831ed40edb71f6bd4a2df2040bb,completion,34,0,stat_low,24,in,170
1575376526,c1ba0831ed40edb71f6bd4a2df2040bb,completion,34,0,stat_low,24,_REACTION_TIME_,23163
1575376526,c1ba0831ed40edb71f6bd4a2df2040bb,completion,34,1,stat_low,24,in,était lent
1575376526,c1ba0831ed40edb71f6bd4a2df2040bb,completion,34,1,stat_low,24,_REACTION_TIME_,14361
1575376526,c1ba0831ed40edb71f6bd4a2df2040bb,completion,48,0,FM,40,in,15
1575376526,c1ba0831ed40edb71f6bd4a2df2040bb,completion,48,0,FM,40,_REACTION_TIME_,14477
1575376526,c1ba0831ed40edb71f6bd4a2df2040bb,completion,35,0,percep_low,25,in,156
1575376526,c1ba0831ed40edb71f6bd4a2df2040bb,completion,35,0,percep_low,25,_REACTION_TIME_,30108
1575376526,c1ba0831ed40edb71f6bd4a2df2040bb,completion,35,1,percep_low,25,in,mentaient
1575376526,c1ba0831ed40edb71f6bd4a2df2040bb,completion,35,1,percep_low,25,_REACTION_TIME_,22651
1575376526,c1ba0831ed40edb71f6bd4a2df2040bb,completion,64,0,filler,71,in,délicieux
1575376526,c1ba0831ed40edb71f6bd4a2df2040bb,completion,64,0,filler,71,_REACTION_TIME_,12521
1575376526,c1ba0831ed40edb71f6bd4a2df2040bb,completion,29,0,percep_high,19,in,444
1575376526,c1ba0831ed40edb71f6bd4a2df2040bb,completion,29,0,percep_high,19,_REACTION_TIME_,29371
1575376526,c1ba0831ed40edb71f6bd4a2df2040bb,completion,29,1,percep_high,19,in,travaillaient
1575376526,c1ba0831ed40edb71f6bd4a2df2040bb,completion,29,1,percep_high,19,_REACTION_TIME_,11442
1575376526,c1ba0831ed40edb71f6bd4a2df2040bb,completion,53,0,filler,60,in,les activités
1575376526,c1ba0831ed40edb71f6bd4a2df2040bb,completion,53,0,filler,60,_REACTION_TIME_,24403
1575376526,c1ba0831ed40edb71f6bd4a2df2040bb,completion,26,0,stat_low,16,in,164
1575376526,c1ba0831ed40edb71f6bd4a2df2040bb,completion,26,0,stat_low,16,_REACTION_TIME_,38219
1575376526,c1ba0831ed40edb71f6bd4a2df2040bb,completion,26,1,stat_low,16,in,parlait assez fort 
1575376526,c1ba0831ed40edb71f6bd4a2df2040bb,completion,26,1,stat_low,16,_REACTION_TIME_,24146
1575376526,c1ba0831ed40edb71f6bd4a2df2040bb,completion,60,0,filler,67,in,le chemin
1575376526,c1ba0831ed40edb71f6bd4a2df2040bb,completion,60,0,filler,67,_REACTION_TIME_,7522
1575376526,c1ba0831ed40edb71f6bd4a2df2040bb,completion,30,0,stat_low,20,in,114
1575376526,c1ba0831ed40edb71f6bd4a2df2040bb,completion,30,0,stat_low,20,_REACTION_TIME_,22731
1575376526,c1ba0831ed40edb71f6bd4a2df2040bb,completion,30,1,stat_low,20,in,était gentil
1575376526,c1ba0831ed40edb71f6bd4a2df2040bb,completion,30,1,stat_low,20,_REACTION_TIME_,13987
1575376526,c1ba0831ed40edb71f6bd4a2df2040bb,completion,58,0,filler,65,in,à jouer
1575376526,c1ba0831ed40edb71f6bd4a2df2040bb,completion,58,0,filler,65,_REACTION_TIME_,17692
1575376526,c1ba0831ed40edb71f6bd4a2df2040bb,completion,20,0,stat_high,10,in,250
1575376526,c1ba0831ed40edb71f6bd4a2df2040bb,completion,20,0,stat_high,10,_REACTION_TIME_,5707
1575376526,c1ba0831ed40edb71f6bd4a2df2040bb,completion,20,1,stat_high,10,in,n'était pas agréable
1575376526,c1ba0831ed40edb71f6bd4a2df2040bb,completion,20,1,stat_high,10,_REACTION_TIME_,18952
1575376526,c1ba0831ed40edb71f6bd4a2df2040bb,completion,50,0,FM,42,in,15
1575376526,c1ba0831ed40edb71f6bd4a2df2040bb,completion,50,0,FM,42,_REACTION_TIME_,25554
1575376526,c1ba0831ed40edb71f6bd4a2df2040bb,completion,12,0,stat_high,2,in,124
1575376526,c1ba0831ed40edb71f6bd4a2df2040bb,completion,12,0,stat_high,2,_REACTION_TIME_,9194
1575376526,c1ba0831ed40edb71f6bd4a2df2040bb,completion,12,1,stat_high,2,in,étaient déjà partis
1575376526,c1ba0831ed40edb71f6bd4a2df2040bb,completion,12,1,stat_high,2,_REACTION_TIME_,26611
1575376526,c1ba0831ed40edb71f6bd4a2df2040bb,completion,41,0,FM,33,in,9
1575376526,c1ba0831ed40edb71f6bd4a2df2040bb,completion,41,0,FM,33,_REACTION_TIME_,33707
1575376526,c1ba0831ed40edb71f6bd4a2df2040bb,completion,32,0,stat_high,22,in,161
1575376526,c1ba0831ed40edb71f6bd4a2df2040bb,completion,32,0,stat_high,22,_REACTION_TIME_,8051
1575376526,c1ba0831ed40edb71f6bd4a2df2040bb,completion,32,1,stat_high,22,in,voulait dormir
1575376526,c1ba0831ed40edb71f6bd4a2df2040bb,completion,32,1,stat_high,22,_REACTION_TIME_,18692
1575376526,c1ba0831ed40edb71f6bd4a2df2040bb,completion,61,0,filler,68,in,le défilé
1575376526,c1ba0831ed40edb71f6bd4a2df2040bb,completion,61,0,filler,68,_REACTION_TIME_,8698
1575376526,c1ba0831ed40edb71f6bd4a2df2040bb,completion,14,0,stat_low,4,in,149
1575376526,c1ba0831ed40edb71f6bd4a2df2040bb,completion,14,0,stat_low,4,_REACTION_TIME_,22361
1575376526,c1ba0831ed40edb71f6bd4a2df2040bb,completion,14,1,stat_low,4,in,étaient malins
1575376526,c1ba0831ed40edb71f6bd4a2df2040bb,completion,14,1,stat_low,4,_REACTION_TIME_,24540
1575376526,c1ba0831ed40edb71f6bd4a2df2040bb,completion,39,0,FM,31,in,13
1575376526,c1ba0831ed40edb71f6bd4a2df2040bb,completion,39,0,FM,31,_REACTION_TIME_,12643
1575376526,c1ba0831ed40edb71f6bd4a2df2040bb,completion,21,0,percep_high,11,in,126
1575376526,c1ba0831ed40edb71f6bd4a2df2040bb,completion,21,0,percep_high,11,_REACTION_TIME_,9476
1575376526,c1ba0831ed40edb71f6bd4a2df2040bb,completion,21,1,percep_high,11,in,mangeait
1575376526,c1ba0831ed40edb71f6bd4a2df2040bb,completion,21,1,percep_high,11,_REACTION_TIME_,15652
1575376526,c1ba0831ed40edb71f6bd4a2df2040bb,completion,19,0,percep_low,9,in,75
1575376526,c1ba0831ed40edb71f6bd4a2df2040bb,completion,19,0,percep_low,9,_REACTION_TIME_,8835
1575376526,c1ba0831ed40edb71f6bd4a2df2040bb,completion,19,1,percep_low,9,in,pleurait
1575376526,c1ba0831ed40edb71f6bd4a2df2040bb,completion,19,1,percep_low,9,_REACTION_TIME_,11690
1575376526,c1ba0831ed40edb71f6bd4a2df2040bb,completion,46,0,FM,38,in,21
1575376526,c1ba0831ed40edb71f6bd4a2df2040bb,completion,46,0,FM,38,_REACTION_TIME_,8931
1575376526,c1ba0831ed40edb71f6bd4a2df2040bb,completion,13,0,percep_high,3,in,119
1575376526,c1ba0831ed40edb71f6bd4a2df2040bb,completion,13,0,percep_high,3,_REACTION_TIME_,5155
1575376526,c1ba0831ed40edb71f6bd4a2df2040bb,completion,13,1,percep_high,3,in,étaient grands
1575376526,c1ba0831ed40edb71f6bd4a2df2040bb,completion,13,1,percep_high,3,_REACTION_TIME_,17051
1575376526,c1ba0831ed40edb71f6bd4a2df2040bb,completion,56,0,filler,63,in,sushis
1575376526,c1ba0831ed40edb71f6bd4a2df2040bb,completion,56,0,filler,63,_REACTION_TIME_,5891
1575376526,c1ba0831ed40edb71f6bd4a2df2040bb,completion,22,0,stat_low,12,in,200
1575376526,c1ba0831ed40edb71f6bd4a2df2040bb,completion,22,0,stat_low,12,_REACTION_TIME_,14233
1575376526,c1ba0831ed40edb71f6bd4a2df2040bb,completion,22,1,stat_low,12,in,était beau
1575376526,c1ba0831ed40edb71f6bd4a2df2040bb,completion,22,1,stat_low,12,_REACTION_TIME_,18185
1575376526,c1ba0831ed40edb71f6bd4a2df2040bb,completion,45,0,FM,37,in,7
1575376526,c1ba0831ed40edb71f6bd4a2df2040bb,completion,45,0,FM,37,_REACTION_TIME_,8308
1575376526,c1ba0831ed40edb71f6bd4a2df2040bb,completion,37,0,percep_high,27,in,75
1575376526,c1ba0831ed40edb71f6bd4a2df2040bb,completion,37,0,percep_high,27,_REACTION_TIME_,32165
1575376526,c1ba0831ed40edb71f6bd4a2df2040bb,completion,37,1,percep_high,27,in,mourait
1575376526,c1ba0831ed40edb71f6bd4a2df2040bb,completion,37,1,percep_high,27,_REACTION_TIME_,9124
1575376526,c1ba0831ed40edb71f6bd4a2df2040bb,completion,59,0,filler,66,in,les gens
1575376526,c1ba0831ed40edb71f6bd4a2df2040bb,completion,59,0,filler,66,_REACTION_TIME_,6266
1575376526,c1ba0831ed40edb71f6bd4a2df2040bb,completion,18,0,stat_low,8,in,225
1575376526,c1ba0831ed40edb71f6bd4a2df2040bb,completion,18,0,stat_low,8,_REACTION_TIME_,4556
1575376526,c1ba0831ed40edb71f6bd4a2df2040bb,completion,18,1,stat_low,8,in,voulait de lui
1575376526,c1ba0831ed40edb71f6bd4a2df2040bb,completion,18,1,stat_low,8,_REACTION_TIME_,10899
1575376526,c1ba0831ed40edb71f6bd4a2df2040bb,completion,66,0,filler,73,in,sales
1575376526,c1ba0831ed40edb71f6bd4a2df2040bb,completion,66,0,filler,73,_REACTION_TIME_,8338
1575376526,c1ba0831ed40edb71f6bd4a2df2040bb,completion,24,0,stat_high,14,in,189
1575376526,c1ba0831ed40edb71f6bd4a2df2040bb,completion,24,0,stat_high,14,_REACTION_TIME_,17788
1575376526,c1ba0831ed40edb71f6bd4a2df2040bb,completion,24,1,stat_high,14,in,dansait
1575376526,c1ba0831ed40edb71f6bd4a2df2040bb,completion,24,1,stat_high,14,_REACTION_TIME_,13219
1575376526,c1ba0831ed40edb71f6bd4a2df2040bb,completion,65,0,filler,72,in,sont grands
1575376526,c1ba0831ed40edb71f6bd4a2df2040bb,completion,65,0,filler,72,_REACTION_TIME_,5668
1575376526,c1ba0831ed40edb71f6bd4a2df2040bb,completion,15,0,percep_low,5,in,500
1575376526,c1ba0831ed40edb71f6bd4a2df2040bb,completion,15,0,percep_low,5,_REACTION_TIME_,27853
1575376526,c1ba0831ed40edb71f6bd4a2df2040bb,completion,15,1,percep_low,5,in,mentaient
1575376526,c1ba0831ed40edb71f6bd4a2df2040bb,completion,15,1,percep_low,5,_REACTION_TIME_,12443
1575376526,c1ba0831ed40edb71f6bd4a2df2040bb,completion,43,0,FM,35,in,4
1575376526,c1ba0831ed40edb71f6bd4a2df2040bb,completion,43,0,FM,35,_REACTION_TIME_,17086
1575376526,c1ba0831ed40edb71f6bd4a2df2040bb,completion,36,0,stat_high,26,in,92
1575376526,c1ba0831ed40edb71f6bd4a2df2040bb,completion,36,0,stat_high,26,_REACTION_TIME_,30091
1575376526,c1ba0831ed40edb71f6bd4a2df2040bb,completion,36,1,stat_high,26,in,jouaeint
1575376526,c1ba0831ed40edb71f6bd4a2df2040bb,completion,36,1,stat_high,26,_REACTION_TIME_,15372
1575376526,c1ba0831ed40edb71f6bd4a2df2040bb,completion,51,0,FM,43,in,215
1575376526,c1ba0831ed40edb71f6bd4a2df2040bb,completion,51,0,FM,43,_REACTION_TIME_,22050
1575376526,c1ba0831ed40edb71f6bd4a2df2040bb,completion,38,0,percep_high,28,in,178
1575376526,c1ba0831ed40edb71f6bd4a2df2040bb,completion,38,0,percep_high,28,_REACTION_TIME_,7308
1575376526,c1ba0831ed40edb71f6bd4a2df2040bb,completion,38,1,percep_high,28,in,était disparu
1575376526,c1ba0831ed40edb71f6bd4a2df2040bb,completion,38,1,percep_high,28,_REACTION_TIME_,15219
1575376526,c1ba0831ed40edb71f6bd4a2df2040bb,completion,44,0,FM,36,in,24
1575376526,c1ba0831ed40edb71f6bd4a2df2040bb,completion,44,0,FM,36,_REACTION_TIME_,48283
1575376526,c1ba0831ed40edb71f6bd4a2df2040bb,completion,33,0,percep_high,23,in,195
1575376526,c1ba0831ed40edb71f6bd4a2df2040bb,completion,33,0,percep_high,23,_REACTION_TIME_,6613
1575376526,c1ba0831ed40edb71f6bd4a2df2040bb,completion,33,1,percep_high,23,in,fumait
1575376526,c1ba0831ed40edb71f6bd4a2df2040bb,completion,33,1,percep_high,23,_REACTION_TIME_,6731
1575376526,c1ba0831ed40edb71f6bd4a2df2040bb,completion,54,0,filler,61,in,vieux
1575376526,c1ba0831ed40edb71f6bd4a2df2040bb,completion,54,0,filler,61,_REACTION_TIME_,4716
1575376526,c1ba0831ed40edb71f6bd4a2df2040bb,completion,17,0,percep_high,7,in,173
1575376526,c1ba0831ed40edb71f6bd4a2df2040bb,completion,17,0,percep_high,7,_REACTION_TIME_,6635
1575376526,c1ba0831ed40edb71f6bd4a2df2040bb,completion,17,1,percep_high,7,in,criaent
1575376526,c1ba0831ed40edb71f6bd4a2df2040bb,completion,17,1,percep_high,7,_REACTION_TIME_,11660
1575376526,c1ba0831ed40edb71f6bd4a2df2040bb,completion,62,0,filler,69,in,gagner
1575376526,c1ba0831ed40edb71f6bd4a2df2040bb,completion,62,0,filler,69,_REACTION_TIME_,4723
1575376526,c1ba0831ed40edb71f6bd4a2df2040bb,completion,28,0,stat_high,18,in,183
1575376526,c1ba0831ed40edb71f6bd4a2df2040bb,completion,28,0,stat_high,18,_REACTION_TIME_,16674
1575376526,c1ba0831ed40edb71f6bd4a2df2040bb,completion,28,1,stat_high,18,in,n'avaient pas de maison
1575376526,c1ba0831ed40edb71f6bd4a2df2040bb,completion,28,1,stat_high,18,_REACTION_TIME_,15443
1575376526,c1ba0831ed40edb71f6bd4a2df2040bb,completion,63,0,filler,70,in,belle
1575376526,c1ba0831ed40edb71f6bd4a2df2040bb,completion,63,0,filler,70,_REACTION_TIME_,6684
1575376526,c1ba0831ed40edb71f6bd4a2df2040bb,completion,16,0,stat_high,6,in,160
1575376526,c1ba0831ed40edb71f6bd4a2df2040bb,completion,16,0,stat_high,6,_REACTION_TIME_,11387
1575376526,c1ba0831ed40edb71f6bd4a2df2040bb,completion,16,1,stat_high,6,in,avaient tué ses amis
1575376526,c1ba0831ed40edb71f6bd4a2df2040bb,completion,16,1,stat_high,6,_REACTION_TIME_,16708
1575376526,c1ba0831ed40edb71f6bd4a2df2040bb,completion,11,0,percep_low,1,in,148
1575376526,c1ba0831ed40edb71f6bd4a2df2040bb,completion,11,0,percep_low,1,_REACTION_TIME_,12100
1575376526,c1ba0831ed40edb71f6bd4a2df2040bb,completion,11,1,percep_low,1,in,ont menti
1575376526,c1ba0831ed40edb71f6bd4a2df2040bb,completion,11,1,percep_low,1,_REACTION_TIME_,16307
1575376526,c1ba0831ed40edb71f6bd4a2df2040bb,completion,57,0,filler,64,in,cirque
1575376526,c1ba0831ed40edb71f6bd4a2df2040bb,completion,57,0,filler,64,_REACTION_TIME_,5075
#
# Results on Tuesday December 03 2019 14:11:12 UTC.
# USER AGENT: Mozilla/5.0 (X11; Ubuntu; Linux x86_64; rv:70.0) Gecko/20100101 Firefox/70.0
# Design number was non-random = 6
#
# Columns below this comment are as follows:
