#
# Results on Sunday January 26 2020 15:57:57 UTC.
# USER AGENT: Mozilla/5.0 (Windows NT 10.0; Win64; x64) AppleWebKit/537.36 (KHTML, like Gecko) Chrome/79.0.3945.130 Safari/537.36
# Design number was non-random = 0
#
# Columns below this comment are as follows:
# 1. Time results were received.
# 2. MD5 hash of participant's IP address.
# 3. Controller name.
# 4. Item number.
# 5. Element number.
# 6. Type.
# 7. Group.
# 8. Field name.
# 9. Field value.
1580054278,9083fbcb70e779d9d5844307fda16ee6,completion,2,0,intro,NULL,age,24
1580054278,9083fbcb70e779d9d5844307fda16ee6,completion,2,0,intro,NULL,nationality,x
1580054278,9083fbcb70e779d9d5844307fda16ee6,completion,2,0,intro,NULL,activity,x
1580054278,9083fbcb70e779d9d5844307fda16ee6,completion,2,0,intro,NULL,birth,x
1580054278,9083fbcb70e779d9d5844307fda16ee6,completion,2,0,intro,NULL,L1,x
1580054278,9083fbcb70e779d9d5844307fda16ee6,completion,2,0,intro,NULL,L1,x
1580054278,9083fbcb70e779d9d5844307fda16ee6,completion,2,0,intro,NULL,consent,yes
1580054278,9083fbcb70e779d9d5844307fda16ee6,completion,2,0,intro,NULL,gender,male
1580054278,9083fbcb70e779d9d5844307fda16ee6,completion,2,0,intro,NULL,academics,under
1580054278,9083fbcb70e779d9d5844307fda16ee6,completion,2,0,intro,NULL,_REACTION_TIME_,15379
1580054278,9083fbcb70e779d9d5844307fda16ee6,completion,6,0,practice,31,in,d
1580054278,9083fbcb70e779d9d5844307fda16ee6,completion,6,0,practice,31,_REACTION_TIME_,2661
1580054278,9083fbcb70e779d9d5844307fda16ee6,completion,4,0,practice,103,in,x
1580054278,9083fbcb70e779d9d5844307fda16ee6,completion,4,0,practice,103,_REACTION_TIME_,1346
1580054278,9083fbcb70e779d9d5844307fda16ee6,completion,10,0,practice,35,in,x
1580054278,9083fbcb70e779d9d5844307fda16ee6,completion,10,0,practice,35,_REACTION_TIME_,766
1580054278,9083fbcb70e779d9d5844307fda16ee6,completion,5,0,practice,101,in,x
1580054278,9083fbcb70e779d9d5844307fda16ee6,completion,5,0,practice,101,_REACTION_TIME_,645
1580054278,9083fbcb70e779d9d5844307fda16ee6,completion,8,0,practice,33,in,x
1580054278,9083fbcb70e779d9d5844307fda16ee6,completion,8,0,practice,33,_REACTION_TIME_,675
1580054278,9083fbcb70e779d9d5844307fda16ee6,completion,3,0,practice,102,in,x
1580054278,9083fbcb70e779d9d5844307fda16ee6,completion,3,0,practice,102,_REACTION_TIME_,475
1580054278,9083fbcb70e779d9d5844307fda16ee6,completion,34,0,stat_high,12,in,x
1580054278,9083fbcb70e779d9d5844307fda16ee6,completion,34,0,stat_high,12,_REACTION_TIME_,1463
1580054278,9083fbcb70e779d9d5844307fda16ee6,completion,34,1,stat_high,12,in,x
1580054278,9083fbcb70e779d9d5844307fda16ee6,completion,34,1,stat_high,12,_REACTION_TIME_,650
1580054278,9083fbcb70e779d9d5844307fda16ee6,completion,62,0,filler,61,in,x
1580054278,9083fbcb70e779d9d5844307fda16ee6,completion,62,0,filler,61,_REACTION_TIME_,510
1580054278,9083fbcb70e779d9d5844307fda16ee6,completion,27,0,stat_low,9,in,x
1580054278,9083fbcb70e779d9d5844307fda16ee6,completion,27,0,stat_low,9,_REACTION_TIME_,509
1580054278,9083fbcb70e779d9d5844307fda16ee6,completion,27,1,stat_low,9,in,x
1580054278,9083fbcb70e779d9d5844307fda16ee6,completion,27,1,stat_low,9,_REACTION_TIME_,626
1580054278,9083fbcb70e779d9d5844307fda16ee6,completion,61,0,filler,60,in,x
1580054278,9083fbcb70e779d9d5844307fda16ee6,completion,61,0,filler,60,_REACTION_TIME_,549
1580054278,9083fbcb70e779d9d5844307fda16ee6,completion,39,0,stat_low,15,in,x
1580054278,9083fbcb70e779d9d5844307fda16ee6,completion,39,0,stat_low,15,_REACTION_TIME_,565
1580054278,9083fbcb70e779d9d5844307fda16ee6,completion,39,1,stat_low,15,in,x
1580054278,9083fbcb70e779d9d5844307fda16ee6,completion,39,1,stat_low,15,_REACTION_TIME_,545
1580054278,9083fbcb70e779d9d5844307fda16ee6,completion,68,0,filler,67,in,x
1580054278,9083fbcb70e779d9d5844307fda16ee6,completion,68,0,filler,67,_REACTION_TIME_,495
1580054278,9083fbcb70e779d9d5844307fda16ee6,completion,31,0,stat_low,11,in,x
1580054278,9083fbcb70e779d9d5844307fda16ee6,completion,31,0,stat_low,11,_REACTION_TIME_,500
1580054278,9083fbcb70e779d9d5844307fda16ee6,completion,31,1,stat_low,11,in,x
1580054278,9083fbcb70e779d9d5844307fda16ee6,completion,31,1,stat_low,11,_REACTION_TIME_,504
1580054278,9083fbcb70e779d9d5844307fda16ee6,completion,52,0,FM,32,in,x
1580054278,9083fbcb70e779d9d5844307fda16ee6,completion,52,0,FM,32,_REACTION_TIME_,555
1580054278,9083fbcb70e779d9d5844307fda16ee6,completion,42,0,stat_high,16,in,x
1580054278,9083fbcb70e779d9d5844307fda16ee6,completion,42,0,stat_high,16,_REACTION_TIME_,495
1580054278,9083fbcb70e779d9d5844307fda16ee6,completion,42,1,stat_high,16,in,x
1580054278,9083fbcb70e779d9d5844307fda16ee6,completion,42,1,stat_high,16,_REACTION_TIME_,590
1580054278,9083fbcb70e779d9d5844307fda16ee6,completion,69,0,filler,68,in,x
1580054278,9083fbcb70e779d9d5844307fda16ee6,completion,69,0,filler,68,_REACTION_TIME_,535
1580054278,9083fbcb70e779d9d5844307fda16ee6,completion,15,0,stat_low,3,in,x
1580054278,9083fbcb70e779d9d5844307fda16ee6,completion,15,0,stat_low,3,_REACTION_TIME_,520
1580054278,9083fbcb70e779d9d5844307fda16ee6,completion,15,1,stat_low,3,in,x
1580054278,9083fbcb70e779d9d5844307fda16ee6,completion,15,1,stat_low,3,_REACTION_TIME_,1081
1580054278,9083fbcb70e779d9d5844307fda16ee6,completion,30,0,stat_high,10,in,x
1580054278,9083fbcb70e779d9d5844307fda16ee6,completion,30,0,stat_high,10,_REACTION_TIME_,520
1580054278,9083fbcb70e779d9d5844307fda16ee6,completion,30,1,stat_high,10,in,x
1580054278,9083fbcb70e779d9d5844307fda16ee6,completion,30,1,stat_high,10,_REACTION_TIME_,490
1580054278,9083fbcb70e779d9d5844307fda16ee6,completion,59,0,FM,39,in,x
1580054278,9083fbcb70e779d9d5844307fda16ee6,completion,59,0,FM,39,_REACTION_TIME_,454
1580054278,9083fbcb70e779d9d5844307fda16ee6,completion,50,0,stat_high,20,in,x
1580054278,9083fbcb70e779d9d5844307fda16ee6,completion,50,0,stat_high,20,_REACTION_TIME_,421
1580054278,9083fbcb70e779d9d5844307fda16ee6,completion,50,1,stat_high,20,in,x
1580054278,9083fbcb70e779d9d5844307fda16ee6,completion,50,1,stat_high,20,_REACTION_TIME_,434
1580054278,9083fbcb70e779d9d5844307fda16ee6,completion,65,0,filler,64,in,x
1580054278,9083fbcb70e779d9d5844307fda16ee6,completion,65,0,filler,64,_REACTION_TIME_,490
1580054278,9083fbcb70e779d9d5844307fda16ee6,completion,14,0,stat_high,2,in,x
1580054278,9083fbcb70e779d9d5844307fda16ee6,completion,14,0,stat_high,2,_REACTION_TIME_,409
1580054278,9083fbcb70e779d9d5844307fda16ee6,completion,14,1,stat_high,2,in,x
1580054278,9083fbcb70e779d9d5844307fda16ee6,completion,14,1,stat_high,2,_REACTION_TIME_,454
1580054278,9083fbcb70e779d9d5844307fda16ee6,completion,54,0,FM,34,in,x
1580054278,9083fbcb70e779d9d5844307fda16ee6,completion,54,0,FM,34,_REACTION_TIME_,500
1580054278,9083fbcb70e779d9d5844307fda16ee6,completion,23,0,stat_low,7,in,x
1580054278,9083fbcb70e779d9d5844307fda16ee6,completion,23,0,stat_low,7,_REACTION_TIME_,435
1580054278,9083fbcb70e779d9d5844307fda16ee6,completion,23,1,stat_low,7,in,x
1580054278,9083fbcb70e779d9d5844307fda16ee6,completion,23,1,stat_low,7,_REACTION_TIME_,430
1580054278,9083fbcb70e779d9d5844307fda16ee6,completion,67,0,filler,66,in,x
1580054278,9083fbcb70e779d9d5844307fda16ee6,completion,67,0,filler,66,_REACTION_TIME_,450
1580054278,9083fbcb70e779d9d5844307fda16ee6,completion,47,0,stat_low,19,in,x
1580054278,9083fbcb70e779d9d5844307fda16ee6,completion,47,0,stat_low,19,_REACTION_TIME_,424
1580054278,9083fbcb70e779d9d5844307fda16ee6,completion,47,1,stat_low,19,in,x
1580054278,9083fbcb70e779d9d5844307fda16ee6,completion,47,1,stat_low,19,_REACTION_TIME_,420
1580054278,9083fbcb70e779d9d5844307fda16ee6,completion,56,0,FM,36,in,x
1580054278,9083fbcb70e779d9d5844307fda16ee6,completion,56,0,FM,36,_REACTION_TIME_,460
1580054278,9083fbcb70e779d9d5844307fda16ee6,completion,22,0,stat_high,6,in,x
1580054278,9083fbcb70e779d9d5844307fda16ee6,completion,22,0,stat_high,6,_REACTION_TIME_,409
1580054278,9083fbcb70e779d9d5844307fda16ee6,completion,22,1,stat_high,6,in,x
1580054278,9083fbcb70e779d9d5844307fda16ee6,completion,22,1,stat_high,6,_REACTION_TIME_,566
1580054278,9083fbcb70e779d9d5844307fda16ee6,completion,60,0,FM,40,in,x
1580054278,9083fbcb70e779d9d5844307fda16ee6,completion,60,0,FM,40,_REACTION_TIME_,599
1580054278,9083fbcb70e779d9d5844307fda16ee6,completion,18,0,stat_high,4,in,x
1580054278,9083fbcb70e779d9d5844307fda16ee6,completion,18,0,stat_high,4,_REACTION_TIME_,520
1580054278,9083fbcb70e779d9d5844307fda16ee6,completion,18,1,stat_high,4,in,x
1580054278,9083fbcb70e779d9d5844307fda16ee6,completion,18,1,stat_high,4,_REACTION_TIME_,544
1580054278,9083fbcb70e779d9d5844307fda16ee6,completion,43,0,stat_low,17,in,x
1580054278,9083fbcb70e779d9d5844307fda16ee6,completion,43,0,stat_low,17,_REACTION_TIME_,554
1580054278,9083fbcb70e779d9d5844307fda16ee6,completion,43,1,stat_low,17,in,x
1580054278,9083fbcb70e779d9d5844307fda16ee6,completion,43,1,stat_low,17,_REACTION_TIME_,535
1580054278,9083fbcb70e779d9d5844307fda16ee6,completion,66,0,filler,65,in,x
1580054278,9083fbcb70e779d9d5844307fda16ee6,completion,66,0,filler,65,_REACTION_TIME_,600
1580054278,9083fbcb70e779d9d5844307fda16ee6,completion,46,0,stat_high,18,in,x
1580054278,9083fbcb70e779d9d5844307fda16ee6,completion,46,0,stat_high,18,_REACTION_TIME_,1493
1580054278,9083fbcb70e779d9d5844307fda16ee6,completion,46,1,stat_high,18,in,x
1580054278,9083fbcb70e779d9d5844307fda16ee6,completion,46,1,stat_high,18,_REACTION_TIME_,529
1580054278,9083fbcb70e779d9d5844307fda16ee6,completion,57,0,FM,37,in,x
1580054278,9083fbcb70e779d9d5844307fda16ee6,completion,57,0,FM,37,_REACTION_TIME_,505
1580054278,9083fbcb70e779d9d5844307fda16ee6,completion,26,0,stat_high,8,in,x
1580054278,9083fbcb70e779d9d5844307fda16ee6,completion,26,0,stat_high,8,_REACTION_TIME_,591
1580054278,9083fbcb70e779d9d5844307fda16ee6,completion,26,1,stat_high,8,in,x
1580054278,9083fbcb70e779d9d5844307fda16ee6,completion,26,1,stat_high,8,_REACTION_TIME_,504
1580054278,9083fbcb70e779d9d5844307fda16ee6,completion,70,0,filler,69,in,x
1580054278,9083fbcb70e779d9d5844307fda16ee6,completion,70,0,filler,69,_REACTION_TIME_,530
1580054278,9083fbcb70e779d9d5844307fda16ee6,completion,19,0,stat_low,5,in,x
1580054278,9083fbcb70e779d9d5844307fda16ee6,completion,19,0,stat_low,5,_REACTION_TIME_,585
1580054278,9083fbcb70e779d9d5844307fda16ee6,completion,19,1,stat_low,5,in,x
1580054278,9083fbcb70e779d9d5844307fda16ee6,completion,19,1,stat_low,5,_REACTION_TIME_,586
1580054278,9083fbcb70e779d9d5844307fda16ee6,completion,58,0,FM,38,in,x
1580054278,9083fbcb70e779d9d5844307fda16ee6,completion,58,0,FM,38,_REACTION_TIME_,424
1580054278,9083fbcb70e779d9d5844307fda16ee6,completion,11,0,stat_low,1,in,x
1580054278,9083fbcb70e779d9d5844307fda16ee6,completion,11,0,stat_low,1,_REACTION_TIME_,469
1580054278,9083fbcb70e779d9d5844307fda16ee6,completion,11,1,stat_low,1,in,x
1580054278,9083fbcb70e779d9d5844307fda16ee6,completion,11,1,stat_low,1,_REACTION_TIME_,485
1580054278,9083fbcb70e779d9d5844307fda16ee6,completion,64,0,filler,63,in,x
1580054278,9083fbcb70e779d9d5844307fda16ee6,completion,64,0,filler,63,_REACTION_TIME_,465
1580054278,9083fbcb70e779d9d5844307fda16ee6,completion,38,0,stat_high,14,in,x
1580054278,9083fbcb70e779d9d5844307fda16ee6,completion,38,0,stat_high,14,_REACTION_TIME_,669
1580054278,9083fbcb70e779d9d5844307fda16ee6,completion,38,1,stat_high,14,in,x
1580054278,9083fbcb70e779d9d5844307fda16ee6,completion,38,1,stat_high,14,_REACTION_TIME_,550
1580054278,9083fbcb70e779d9d5844307fda16ee6,completion,35,0,stat_low,13,in,x
1580054278,9083fbcb70e779d9d5844307fda16ee6,completion,35,0,stat_low,13,_REACTION_TIME_,605
1580054278,9083fbcb70e779d9d5844307fda16ee6,completion,35,1,stat_low,13,in,x
1580054278,9083fbcb70e779d9d5844307fda16ee6,completion,35,1,stat_low,13,_REACTION_TIME_,505
1580054278,9083fbcb70e779d9d5844307fda16ee6,completion,63,0,filler,62,in,x
1580054278,9083fbcb70e779d9d5844307fda16ee6,completion,63,0,filler,62,_REACTION_TIME_,565
#
# Results on Monday January 27 2020 10:19:16 UTC.
# USER AGENT: Mozilla/5.0 (Macintosh; Intel Mac OS X 10_14_6) AppleWebKit/605.1.15 (KHTML, like Gecko) Version/13.0.2 Safari/605.1.15
# Design number was non-random = 1
#
# Columns below this comment are as follows:
# 1. Time results were received.
# 2. MD5 hash of participant's IP address.
# 3. Controller name.
# 4. Item number.
# 5. Element number.
# 6. Type.
# 7. Group.
# 8. Field name.
# 9. Field value.
1580120356,09d319a6aeafb8a61058a106445e0220,completion,2,0,intro,NULL,age,23
1580120356,09d319a6aeafb8a61058a106445e0220,completion,2,0,intro,NULL,nationality,Francaise
1580120356,09d319a6aeafb8a61058a106445e0220,completion,2,0,intro,NULL,activity,Sciences sociales
1580120356,09d319a6aeafb8a61058a106445e0220,completion,2,0,intro,NULL,birth,Maroc
1580120356,09d319a6aeafb8a61058a106445e0220,completion,2,0,intro,NULL,L1,Francais
1580120356,09d319a6aeafb8a61058a106445e0220,completion,2,0,intro,NULL,L1,1005
1580120356,09d319a6aeafb8a61058a106445e0220,completion,2,0,intro,NULL,consent,yes
1580120356,09d319a6aeafb8a61058a106445e0220,completion,2,0,intro,NULL,gender,male
1580120356,09d319a6aeafb8a61058a106445e0220,completion,2,0,intro,NULL,academics,bac
1580120356,09d319a6aeafb8a61058a106445e0220,completion,2,0,intro,NULL,_REACTION_TIME_,1300157
1580120356,09d319a6aeafb8a61058a106445e0220,completion,4,0,practice,103,in,bonnes
1580120356,09d319a6aeafb8a61058a106445e0220,completion,4,0,practice,103,_REACTION_TIME_,16334
1580120356,09d319a6aeafb8a61058a106445e0220,completion,5,0,practice,101,in,conviction
1580120356,09d319a6aeafb8a61058a106445e0220,completion,5,0,practice,101,_REACTION_TIME_,6429
1580120356,09d319a6aeafb8a61058a106445e0220,completion,9,0,practice,34,in,17
1580120356,09d319a6aeafb8a61058a106445e0220,completion,9,0,practice,34,_REACTION_TIME_,11052
1580120356,09d319a6aeafb8a61058a106445e0220,completion,3,0,practice,102,in,dimanche
1580120356,09d319a6aeafb8a61058a106445e0220,completion,3,0,practice,102,_REACTION_TIME_,4205
1580120356,09d319a6aeafb8a61058a106445e0220,completion,7,0,practice,32,in,161
1580120356,09d319a6aeafb8a61058a106445e0220,completion,7,0,practice,32,_REACTION_TIME_,6756
1580120356,09d319a6aeafb8a61058a106445e0220,completion,40,0,stat_high,15,in,75
1580120356,09d319a6aeafb8a61058a106445e0220,completion,40,0,stat_high,15,_REACTION_TIME_,48537
1580120356,09d319a6aeafb8a61058a106445e0220,completion,40,1,stat_high,15,in,en avaient besoin
1580120356,09d319a6aeafb8a61058a106445e0220,completion,40,1,stat_high,15,_REACTION_TIME_,9123
1580120356,09d319a6aeafb8a61058a106445e0220,completion,24,0,stat_high,7,in,70
1580120356,09d319a6aeafb8a61058a106445e0220,completion,24,0,stat_high,7,_REACTION_TIME_,16957
1580120356,09d319a6aeafb8a61058a106445e0220,completion,24,1,stat_high,7,in,étaient libres
1580120356,09d319a6aeafb8a61058a106445e0220,completion,24,1,stat_high,7,_REACTION_TIME_,14141
1580120356,09d319a6aeafb8a61058a106445e0220,completion,67,0,filler,66,in,ses clients
1580120356,09d319a6aeafb8a61058a106445e0220,completion,67,0,filler,66,_REACTION_TIME_,9277
1580120356,09d319a6aeafb8a61058a106445e0220,completion,20,0,stat_high,5,in,81
1580120356,09d319a6aeafb8a61058a106445e0220,completion,20,0,stat_high,5,_REACTION_TIME_,8581
1580120356,09d319a6aeafb8a61058a106445e0220,completion,20,1,stat_high,5,in,lui avaient demandé
1580120356,09d319a6aeafb8a61058a106445e0220,completion,20,1,stat_high,5,_REACTION_TIME_,37493
1580120356,09d319a6aeafb8a61058a106445e0220,completion,65,0,filler,64,in,marché
1580120356,09d319a6aeafb8a61058a106445e0220,completion,65,0,filler,64,_REACTION_TIME_,4292
1580120356,09d319a6aeafb8a61058a106445e0220,completion,29,0,stat_low,10,in,93
1580120356,09d319a6aeafb8a61058a106445e0220,completion,29,0,stat_low,10,_REACTION_TIME_,16078
1580120356,09d319a6aeafb8a61058a106445e0220,completion,29,1,stat_low,10,in,était blonde
1580120356,09d319a6aeafb8a61058a106445e0220,completion,29,1,stat_low,10,_REACTION_TIME_,8550
1580120356,09d319a6aeafb8a61058a106445e0220,completion,63,0,filler,62,in,indispensable
1580120356,09d319a6aeafb8a61058a106445e0220,completion,63,0,filler,62,_REACTION_TIME_,11108
1580120356,09d319a6aeafb8a61058a106445e0220,completion,41,0,stat_low,16,in,101
1580120356,09d319a6aeafb8a61058a106445e0220,completion,41,0,stat_low,16,_REACTION_TIME_,9718
1580120356,09d319a6aeafb8a61058a106445e0220,completion,41,1,stat_low,16,in,avaient préparé une présentation
1580120356,09d319a6aeafb8a61058a106445e0220,completion,41,1,stat_low,16,_REACTION_TIME_,11462
1580120356,09d319a6aeafb8a61058a106445e0220,completion,70,0,filler,69,in,donner leur maximum
1580120356,09d319a6aeafb8a61058a106445e0220,completion,70,0,filler,69,_REACTION_TIME_,10797
1580120356,09d319a6aeafb8a61058a106445e0220,completion,36,0,stat_high,13,in,50
1580120356,09d319a6aeafb8a61058a106445e0220,completion,36,0,stat_high,13,_REACTION_TIME_,9295
1580120356,09d319a6aeafb8a61058a106445e0220,completion,36,1,stat_high,13,in,était végétarien
1580120356,09d319a6aeafb8a61058a106445e0220,completion,36,1,stat_high,13,_REACTION_TIME_,8588
1580120356,09d319a6aeafb8a61058a106445e0220,completion,62,0,filler,61,in,précision
1580120356,09d319a6aeafb8a61058a106445e0220,completion,62,0,filler,61,_REACTION_TIME_,6567
1580120356,09d319a6aeafb8a61058a106445e0220,completion,49,0,stat_low,20,in,100
1580120356,09d319a6aeafb8a61058a106445e0220,completion,49,0,stat_low,20,_REACTION_TIME_,9340
1580120356,09d319a6aeafb8a61058a106445e0220,completion,49,1,stat_low,20,in,habitait sur un bateau
1580120356,09d319a6aeafb8a61058a106445e0220,completion,49,1,stat_low,20,_REACTION_TIME_,18613
1580120356,09d319a6aeafb8a61058a106445e0220,completion,56,0,FM,36,in,24
1580120356,09d319a6aeafb8a61058a106445e0220,completion,56,0,FM,36,_REACTION_TIME_,18149
1580120356,09d319a6aeafb8a61058a106445e0220,completion,44,0,stat_high,17,in,79
1580120356,09d319a6aeafb8a61058a106445e0220,completion,44,0,stat_high,17,_REACTION_TIME_,11101
1580120356,09d319a6aeafb8a61058a106445e0220,completion,44,1,stat_high,17,in,trafiquaient les comptes
1580120356,09d319a6aeafb8a61058a106445e0220,completion,44,1,stat_high,17,_REACTION_TIME_,8653
1580120356,09d319a6aeafb8a61058a106445e0220,completion,68,0,filler,67,in,l'itinéraire
1580120356,09d319a6aeafb8a61058a106445e0220,completion,68,0,filler,67,_REACTION_TIME_,8485
1580120356,09d319a6aeafb8a61058a106445e0220,completion,32,0,stat_high,11,in,20
1580120356,09d319a6aeafb8a61058a106445e0220,completion,32,0,stat_high,11,_REACTION_TIME_,7158
1580120356,09d319a6aeafb8a61058a106445e0220,completion,32,1,stat_high,11,in,avaient une chambre de libre
1580120356,09d319a6aeafb8a61058a106445e0220,completion,32,1,stat_high,11,_REACTION_TIME_,11933
1580120356,09d319a6aeafb8a61058a106445e0220,completion,51,0,FM,31,in,13
1580120356,09d319a6aeafb8a61058a106445e0220,completion,51,0,FM,31,_REACTION_TIME_,6637
1580120356,09d319a6aeafb8a61058a106445e0220,completion,21,0,stat_low,6,in,126
1580120356,09d319a6aeafb8a61058a106445e0220,completion,21,0,stat_low,6,_REACTION_TIME_,11262
1580120356,09d319a6aeafb8a61058a106445e0220,completion,21,1,stat_low,6,in,lui avaient manqué de respect
1580120356,09d319a6aeafb8a61058a106445e0220,completion,21,1,stat_low,6,_REACTION_TIME_,14333
1580120356,09d319a6aeafb8a61058a106445e0220,completion,57,0,FM,37,in,7
1580120356,09d319a6aeafb8a61058a106445e0220,completion,57,0,FM,37,_REACTION_TIME_,4244
1580120356,09d319a6aeafb8a61058a106445e0220,completion,25,0,stat_low,8,in,97
1580120356,09d319a6aeafb8a61058a106445e0220,completion,25,0,stat_low,8,_REACTION_TIME_,16598
1580120356,09d319a6aeafb8a61058a106445e0220,completion,25,1,stat_low,8,in,voulait raconter ses histoires uniques
1580120356,09d319a6aeafb8a61058a106445e0220,completion,25,1,stat_low,8,_REACTION_TIME_,18942
1580120356,09d319a6aeafb8a61058a106445e0220,completion,16,0,stat_high,3,in,59
1580120356,09d319a6aeafb8a61058a106445e0220,completion,16,0,stat_high,3,_REACTION_TIME_,13766
1580120356,09d319a6aeafb8a61058a106445e0220,completion,16,1,stat_high,3,in,avaient un peu de temps libre
1580120356,09d319a6aeafb8a61058a106445e0220,completion,16,1,stat_high,3,_REACTION_TIME_,9854
1580120356,09d319a6aeafb8a61058a106445e0220,completion,69,0,filler,68,in,une intervention
1580120356,09d319a6aeafb8a61058a106445e0220,completion,69,0,filler,68,_REACTION_TIME_,6110
1580120356,09d319a6aeafb8a61058a106445e0220,completion,28,0,stat_high,9,in,57
1580120356,09d319a6aeafb8a61058a106445e0220,completion,28,0,stat_high,9,_REACTION_TIME_,24118
1580120356,09d319a6aeafb8a61058a106445e0220,completion,28,1,stat_high,9,in,ne le respectait plus
1580120356,09d319a6aeafb8a61058a106445e0220,completion,28,1,stat_high,9,_REACTION_TIME_,10485
1580120356,09d319a6aeafb8a61058a106445e0220,completion,59,0,FM,39,in,25
1580120356,09d319a6aeafb8a61058a106445e0220,completion,59,0,FM,39,_REACTION_TIME_,5157
1580120356,09d319a6aeafb8a61058a106445e0220,completion,48,0,stat_high,19,in,59
1580120356,09d319a6aeafb8a61058a106445e0220,completion,48,0,stat_high,19,_REACTION_TIME_,10965
1580120356,09d319a6aeafb8a61058a106445e0220,completion,48,1,stat_high,19,in,lui avait offert à boire
1580120356,09d319a6aeafb8a61058a106445e0220,completion,48,1,stat_high,19,_REACTION_TIME_,9925
1580120356,09d319a6aeafb8a61058a106445e0220,completion,58,0,FM,38,in,21
1580120356,09d319a6aeafb8a61058a106445e0220,completion,58,0,FM,38,_REACTION_TIME_,8230
1580120356,09d319a6aeafb8a61058a106445e0220,completion,12,0,stat_high,1,in,59
1580120356,09d319a6aeafb8a61058a106445e0220,completion,12,0,stat_high,1,_REACTION_TIME_,7054
1580120356,09d319a6aeafb8a61058a106445e0220,completion,12,1,stat_high,1,in,étaient réceptifs
1580120356,09d319a6aeafb8a61058a106445e0220,completion,12,1,stat_high,1,_REACTION_TIME_,12542
1580120356,09d319a6aeafb8a61058a106445e0220,completion,60,0,FM,40,in,25
1580120356,09d319a6aeafb8a61058a106445e0220,completion,60,0,FM,40,_REACTION_TIME_,5710
1580120356,09d319a6aeafb8a61058a106445e0220,completion,33,0,stat_low,12,in,104
1580120356,09d319a6aeafb8a61058a106445e0220,completion,33,0,stat_low,12,_REACTION_TIME_,9622
1580120356,09d319a6aeafb8a61058a106445e0220,completion,33,1,stat_low,12,in,faisait passer ses clients avant tout
1580120356,09d319a6aeafb8a61058a106445e0220,completion,33,1,stat_low,12,_REACTION_TIME_,16893
1580120356,09d319a6aeafb8a61058a106445e0220,completion,66,0,filler,65,in,sa composition
1580120356,09d319a6aeafb8a61058a106445e0220,completion,66,0,filler,65,_REACTION_TIME_,8477
1580120356,09d319a6aeafb8a61058a106445e0220,completion,17,0,stat_low,4,in,93
1580120356,09d319a6aeafb8a61058a106445e0220,completion,17,0,stat_low,4,_REACTION_TIME_,11878
1580120356,09d319a6aeafb8a61058a106445e0220,completion,17,1,stat_low,4,in,faisaient un travail remarquable
1580120356,09d319a6aeafb8a61058a106445e0220,completion,17,1,stat_low,4,_REACTION_TIME_,13229
1580120356,09d319a6aeafb8a61058a106445e0220,completion,55,0,FM,35,in,4
1580120356,09d319a6aeafb8a61058a106445e0220,completion,55,0,FM,35,_REACTION_TIME_,7366
1580120356,09d319a6aeafb8a61058a106445e0220,completion,13,0,stat_low,2,in,126
1580120356,09d319a6aeafb8a61058a106445e0220,completion,13,0,stat_low,2,_REACTION_TIME_,9926
1580120356,09d319a6aeafb8a61058a106445e0220,completion,13,1,stat_low,2,in,allaient beaucoup plus vite que lui
1580120356,09d319a6aeafb8a61058a106445e0220,completion,13,1,stat_low,2,_REACTION_TIME_,11925
1580120356,09d319a6aeafb8a61058a106445e0220,completion,61,0,filler,60,in,sa prochaine expédition
1580120356,09d319a6aeafb8a61058a106445e0220,completion,61,0,filler,60,_REACTION_TIME_,8621
1580120356,09d319a6aeafb8a61058a106445e0220,completion,37,0,stat_low,14,in,108
1580120356,09d319a6aeafb8a61058a106445e0220,completion,37,0,stat_low,14,_REACTION_TIME_,10822
1580120356,09d319a6aeafb8a61058a106445e0220,completion,37,1,stat_low,14,in,était à l'avant de la parade
1580120356,09d319a6aeafb8a61058a106445e0220,completion,37,1,stat_low,14,_REACTION_TIME_,14870
1580120356,09d319a6aeafb8a61058a106445e0220,completion,53,0,FM,33,in,9
1580120356,09d319a6aeafb8a61058a106445e0220,completion,53,0,FM,33,_REACTION_TIME_,13421
1580120356,09d319a6aeafb8a61058a106445e0220,completion,45,0,stat_low,18,in,99
1580120356,09d319a6aeafb8a61058a106445e0220,completion,45,0,stat_low,18,_REACTION_TIME_,9494
1580120356,09d319a6aeafb8a61058a106445e0220,completion,45,1,stat_low,18,in,avaient joué dans le dernier film de Spielberg
1580120356,09d319a6aeafb8a61058a106445e0220,completion,45,1,stat_low,18,_REACTION_TIME_,54029
1580120356,09d319a6aeafb8a61058a106445e0220,completion,64,0,filler,63,in,chaussures
1580120356,09d319a6aeafb8a61058a106445e0220,completion,64,0,filler,63,_REACTION_TIME_,4389
#
# Results on Monday January 27 2020 17:37:49 UTC.
# USER AGENT: Mozilla/5.0 (Macintosh; Intel Mac OS X 10_14_6) AppleWebKit/605.1.15 (KHTML, like Gecko) Version/13.0.2 Safari/605.1.15
# Design number was non-random = 2
#
# Columns below this comment are as follows:
# 1. Time results were received.
# 2. MD5 hash of participant's IP address.
# 3. Controller name.
# 4. Item number.
# 5. Element number.
# 6. Type.
# 7. Group.
# 8. Field name.
# 9. Field value.
1580146670,af3ac6bb9c9a717a43876b97fd6bd8e1,completion,2,0,intro,NULL,age,19
1580146670,af3ac6bb9c9a717a43876b97fd6bd8e1,completion,2,0,intro,NULL,nationality,ivoirienne
1580146670,af3ac6bb9c9a717a43876b97fd6bd8e1,completion,2,0,intro,NULL,activity,MIASHS
1580146670,af3ac6bb9c9a717a43876b97fd6bd8e1,completion,2,0,intro,NULL,birth,Abidjan_Cote d'ivoire
1580146670,af3ac6bb9c9a717a43876b97fd6bd8e1,completion,2,0,intro,NULL,L1,français
1580146670,af3ac6bb9c9a717a43876b97fd6bd8e1,completion,2,0,intro,NULL,L1,5400
1580146670,af3ac6bb9c9a717a43876b97fd6bd8e1,completion,2,0,intro,NULL,consent,yes
1580146670,af3ac6bb9c9a717a43876b97fd6bd8e1,completion,2,0,intro,NULL,gender,female
1580146670,af3ac6bb9c9a717a43876b97fd6bd8e1,completion,2,0,intro,NULL,academics,L2
1580146670,af3ac6bb9c9a717a43876b97fd6bd8e1,completion,2,0,intro,NULL,_REACTION_TIME_,4699658
1580146670,af3ac6bb9c9a717a43876b97fd6bd8e1,completion,5,0,practice,101,in,nourriture
1580146670,af3ac6bb9c9a717a43876b97fd6bd8e1,completion,5,0,practice,101,_REACTION_TIME_,37038
1580146670,af3ac6bb9c9a717a43876b97fd6bd8e1,completion,6,0,practice,31,in,76
1580146670,af3ac6bb9c9a717a43876b97fd6bd8e1,completion,6,0,practice,31,_REACTION_TIME_,28156
1580146670,af3ac6bb9c9a717a43876b97fd6bd8e1,completion,8,0,practice,33,in,28
1580146670,af3ac6bb9c9a717a43876b97fd6bd8e1,completion,8,0,practice,33,_REACTION_TIME_,10100
1580146670,af3ac6bb9c9a717a43876b97fd6bd8e1,completion,3,0,practice,102,in,lundi
1580146670,af3ac6bb9c9a717a43876b97fd6bd8e1,completion,3,0,practice,102,_REACTION_TIME_,7420
1580146670,af3ac6bb9c9a717a43876b97fd6bd8e1,completion,4,0,practice,103,in,les moins bonnes
1580146670,af3ac6bb9c9a717a43876b97fd6bd8e1,completion,4,0,practice,103,_REACTION_TIME_,8661
1580146670,af3ac6bb9c9a717a43876b97fd6bd8e1,completion,10,0,practice,35,in,21
1580146670,af3ac6bb9c9a717a43876b97fd6bd8e1,completion,10,0,practice,35,_REACTION_TIME_,25541
1580146670,af3ac6bb9c9a717a43876b97fd6bd8e1,completion,39,0,stat_low,15,in,96
1580146670,af3ac6bb9c9a717a43876b97fd6bd8e1,completion,39,0,stat_low,15,_REACTION_TIME_,14001
1580146670,af3ac6bb9c9a717a43876b97fd6bd8e1,completion,39,1,stat_low,15,in,avaient oublié de récupérer la clef chez leur père avant son voyage.
1580146670,af3ac6bb9c9a717a43876b97fd6bd8e1,completion,39,1,stat_low,15,_REACTION_TIME_,41749
1580146670,af3ac6bb9c9a717a43876b97fd6bd8e1,completion,68,0,filler,67,in,les consignes de sécurité avant le décollage
1580146670,af3ac6bb9c9a717a43876b97fd6bd8e1,completion,68,0,filler,67,_REACTION_TIME_,23325
1580146670,af3ac6bb9c9a717a43876b97fd6bd8e1,completion,27,0,stat_low,9,in,95
1580146670,af3ac6bb9c9a717a43876b97fd6bd8e1,completion,27,0,stat_low,9,_REACTION_TIME_,11621
1580146670,af3ac6bb9c9a717a43876b97fd6bd8e1,completion,27,1,stat_low,9,in,ne lui rendait pas la vie facile
1580146670,af3ac6bb9c9a717a43876b97fd6bd8e1,completion,27,1,stat_low,9,_REACTION_TIME_,18078
1580146670,af3ac6bb9c9a717a43876b97fd6bd8e1,completion,67,0,filler,66,in,les services que l'entreprise propose
1580146670,af3ac6bb9c9a717a43876b97fd6bd8e1,completion,67,0,filler,66,_REACTION_TIME_,32829
1580146670,af3ac6bb9c9a717a43876b97fd6bd8e1,completion,46,0,stat_high,18,in,69
1580146670,af3ac6bb9c9a717a43876b97fd6bd8e1,completion,46,0,stat_high,18,_REACTION_TIME_,12893
1580146670,af3ac6bb9c9a717a43876b97fd6bd8e1,completion,46,1,stat_high,18,in,avaient un bon rendu
1580146670,af3ac6bb9c9a717a43876b97fd6bd8e1,completion,46,1,stat_high,18,_REACTION_TIME_,30501
1580146670,af3ac6bb9c9a717a43876b97fd6bd8e1,completion,65,0,filler,64,in,sport
1580146670,af3ac6bb9c9a717a43876b97fd6bd8e1,completion,65,0,filler,64,_REACTION_TIME_,11126
1580146670,af3ac6bb9c9a717a43876b97fd6bd8e1,completion,11,0,stat_low,1,in,111
1580146670,af3ac6bb9c9a717a43876b97fd6bd8e1,completion,11,0,stat_low,1,_REACTION_TIME_,10381
1580146670,af3ac6bb9c9a717a43876b97fd6bd8e1,completion,11,1,stat_low,1,in,l'accusait de viol
1580146670,af3ac6bb9c9a717a43876b97fd6bd8e1,completion,11,1,stat_low,1,_REACTION_TIME_,19597
1580146670,af3ac6bb9c9a717a43876b97fd6bd8e1,completion,52,0,FM,32,in,12
1580146670,af3ac6bb9c9a717a43876b97fd6bd8e1,completion,52,0,FM,32,_REACTION_TIME_,10029
1580146670,af3ac6bb9c9a717a43876b97fd6bd8e1,completion,38,0,stat_high,14,in,80
1580146670,af3ac6bb9c9a717a43876b97fd6bd8e1,completion,38,0,stat_high,14,_REACTION_TIME_,16293
1580146670,af3ac6bb9c9a717a43876b97fd6bd8e1,completion,38,1,stat_high,14,in,avaient détruit son étalage
1580146670,af3ac6bb9c9a717a43876b97fd6bd8e1,completion,38,1,stat_high,14,_REACTION_TIME_,26525
1580146670,af3ac6bb9c9a717a43876b97fd6bd8e1,completion,61,0,filler,60,in,son cours de demain
1580146670,af3ac6bb9c9a717a43876b97fd6bd8e1,completion,61,0,filler,60,_REACTION_TIME_,26877
1580146670,af3ac6bb9c9a717a43876b97fd6bd8e1,completion,26,0,stat_high,8,in,58
1580146670,af3ac6bb9c9a717a43876b97fd6bd8e1,completion,26,0,stat_high,8,_REACTION_TIME_,15597
1580146670,af3ac6bb9c9a717a43876b97fd6bd8e1,completion,26,1,stat_high,8,in,avaient saccagé son amphi
1580146670,af3ac6bb9c9a717a43876b97fd6bd8e1,completion,26,1,stat_high,8,_REACTION_TIME_,26534
1580146670,af3ac6bb9c9a717a43876b97fd6bd8e1,completion,35,0,stat_low,13,in,96
1580146670,af3ac6bb9c9a717a43876b97fd6bd8e1,completion,35,0,stat_low,13,_REACTION_TIME_,7852
1580146670,af3ac6bb9c9a717a43876b97fd6bd8e1,completion,35,1,stat_low,13,in,lui avaient fait bonne impression
1580146670,af3ac6bb9c9a717a43876b97fd6bd8e1,completion,35,1,stat_low,13,_REACTION_TIME_,33109
1580146670,af3ac6bb9c9a717a43876b97fd6bd8e1,completion,57,0,FM,37,in,7
1580146670,af3ac6bb9c9a717a43876b97fd6bd8e1,completion,57,0,FM,37,_REACTION_TIME_,4109
1580146670,af3ac6bb9c9a717a43876b97fd6bd8e1,completion,43,0,stat_low,17,in,98
1580146670,af3ac6bb9c9a717a43876b97fd6bd8e1,completion,43,0,stat_low,17,_REACTION_TIME_,6269
1580146670,af3ac6bb9c9a717a43876b97fd6bd8e1,completion,43,1,stat_low,17,in,s'occupe des finances
1580146670,af3ac6bb9c9a717a43876b97fd6bd8e1,completion,43,1,stat_low,17,_REACTION_TIME_,27749
1580146670,af3ac6bb9c9a717a43876b97fd6bd8e1,completion,64,0,filler,63,in,sushis
1580146670,af3ac6bb9c9a717a43876b97fd6bd8e1,completion,64,0,filler,63,_REACTION_TIME_,9653
1580146670,af3ac6bb9c9a717a43876b97fd6bd8e1,completion,22,0,stat_high,6,in,70
1580146670,af3ac6bb9c9a717a43876b97fd6bd8e1,completion,22,0,stat_high,6,_REACTION_TIME_,19765
1580146670,af3ac6bb9c9a717a43876b97fd6bd8e1,completion,22,1,stat_high,6,in,l'avaient blessé
1580146670,af3ac6bb9c9a717a43876b97fd6bd8e1,completion,22,1,stat_high,6,_REACTION_TIME_,41357
1580146670,af3ac6bb9c9a717a43876b97fd6bd8e1,completion,66,0,filler,65,in,sa prestation
1580146670,af3ac6bb9c9a717a43876b97fd6bd8e1,completion,66,0,filler,65,_REACTION_TIME_,9893
1580146670,af3ac6bb9c9a717a43876b97fd6bd8e1,completion,18,0,stat_high,4,in,55
1580146670,af3ac6bb9c9a717a43876b97fd6bd8e1,completion,18,0,stat_high,4,_REACTION_TIME_,16085
1580146670,af3ac6bb9c9a717a43876b97fd6bd8e1,completion,18,1,stat_high,4,in,avait chantée au restaurant hier soir
1580146670,af3ac6bb9c9a717a43876b97fd6bd8e1,completion,18,1,stat_high,4,_REACTION_TIME_,67725
1580146670,af3ac6bb9c9a717a43876b97fd6bd8e1,completion,54,0,FM,34,in,28
1580146670,af3ac6bb9c9a717a43876b97fd6bd8e1,completion,54,0,FM,34,_REACTION_TIME_,21493
1580146670,af3ac6bb9c9a717a43876b97fd6bd8e1,completion,42,0,stat_high,16,in,55
1580146670,af3ac6bb9c9a717a43876b97fd6bd8e1,completion,42,0,stat_high,16,_REACTION_TIME_,14854
1580146670,af3ac6bb9c9a717a43876b97fd6bd8e1,completion,42,1,stat_high,16,in,lui a offert sa première croisière 
1580146670,af3ac6bb9c9a717a43876b97fd6bd8e1,completion,42,1,stat_high,16,_REACTION_TIME_,62230
1580146670,af3ac6bb9c9a717a43876b97fd6bd8e1,completion,60,0,FM,40,in,15
1580146670,af3ac6bb9c9a717a43876b97fd6bd8e1,completion,60,0,FM,40,_REACTION_TIME_,9108
1580146670,af3ac6bb9c9a717a43876b97fd6bd8e1,completion,23,0,stat_low,7,in,108
1580146670,af3ac6bb9c9a717a43876b97fd6bd8e1,completion,23,0,stat_low,7,_REACTION_TIME_,26509
1580146670,af3ac6bb9c9a717a43876b97fd6bd8e1,completion,23,1,stat_low,7,in,lui a permis de monter sur scène pour la première fois
1580146670,af3ac6bb9c9a717a43876b97fd6bd8e1,completion,23,1,stat_low,7,_REACTION_TIME_,49909
1580146670,af3ac6bb9c9a717a43876b97fd6bd8e1,completion,59,0,FM,39,in,25
1580146670,af3ac6bb9c9a717a43876b97fd6bd8e1,completion,59,0,FM,39,_REACTION_TIME_,8101
1580146670,af3ac6bb9c9a717a43876b97fd6bd8e1,completion,14,0,stat_high,2,in,70
1580146670,af3ac6bb9c9a717a43876b97fd6bd8e1,completion,14,0,stat_high,2,_REACTION_TIME_,23174
1580146670,af3ac6bb9c9a717a43876b97fd6bd8e1,completion,14,1,stat_high,2,in,a gagné la médaille d'or aux jeux olympiques
1580146670,af3ac6bb9c9a717a43876b97fd6bd8e1,completion,14,1,stat_high,2,_REACTION_TIME_,29766
1580146670,af3ac6bb9c9a717a43876b97fd6bd8e1,completion,19,0,stat_low,5,in,98
1580146670,af3ac6bb9c9a717a43876b97fd6bd8e1,completion,19,0,stat_low,5,_REACTION_TIME_,8685
1580146670,af3ac6bb9c9a717a43876b97fd6bd8e1,completion,19,1,stat_low,5,in,est décédé il y'a deux ans
1580146670,af3ac6bb9c9a717a43876b97fd6bd8e1,completion,19,1,stat_low,5,_REACTION_TIME_,19845
1580146670,af3ac6bb9c9a717a43876b97fd6bd8e1,completion,62,0,filler,61,in,salle
1580146670,af3ac6bb9c9a717a43876b97fd6bd8e1,completion,62,0,filler,61,_REACTION_TIME_,11309
1580146670,af3ac6bb9c9a717a43876b97fd6bd8e1,completion,34,0,stat_high,12,in,55
1580146670,af3ac6bb9c9a717a43876b97fd6bd8e1,completion,34,0,stat_high,12,_REACTION_TIME_,12061
1580146670,af3ac6bb9c9a717a43876b97fd6bd8e1,completion,34,1,stat_high,12,in,distribuait gratuitement des billets pour le concert
1580146670,af3ac6bb9c9a717a43876b97fd6bd8e1,completion,34,1,stat_high,12,_REACTION_TIME_,32783
1580146670,af3ac6bb9c9a717a43876b97fd6bd8e1,completion,56,0,FM,36,in,24
1580146670,af3ac6bb9c9a717a43876b97fd6bd8e1,completion,56,0,FM,36,_REACTION_TIME_,10653
1580146670,af3ac6bb9c9a717a43876b97fd6bd8e1,completion,31,0,stat_low,11,in,97
1580146670,af3ac6bb9c9a717a43876b97fd6bd8e1,completion,31,0,stat_low,11,_REACTION_TIME_,9078
1580146670,af3ac6bb9c9a717a43876b97fd6bd8e1,completion,31,1,stat_low,11,in,disposaient d'une chambre libre
1580146670,af3ac6bb9c9a717a43876b97fd6bd8e1,completion,31,1,stat_low,11,_REACTION_TIME_,46350
1580146670,af3ac6bb9c9a717a43876b97fd6bd8e1,completion,70,0,filler,69,in,à la salle de gym régulièrement
1580146670,af3ac6bb9c9a717a43876b97fd6bd8e1,completion,70,0,filler,69,_REACTION_TIME_,27646
1580146670,af3ac6bb9c9a717a43876b97fd6bd8e1,completion,50,0,stat_high,20,in,51
1580146670,af3ac6bb9c9a717a43876b97fd6bd8e1,completion,50,0,stat_high,20,_REACTION_TIME_,17381
1580146670,af3ac6bb9c9a717a43876b97fd6bd8e1,completion,50,1,stat_high,20,in,lui a appris à hisser une voile
1580146670,af3ac6bb9c9a717a43876b97fd6bd8e1,completion,50,1,stat_high,20,_REACTION_TIME_,27525
1580146670,af3ac6bb9c9a717a43876b97fd6bd8e1,completion,58,0,FM,38,in,21
1580146670,af3ac6bb9c9a717a43876b97fd6bd8e1,completion,58,0,FM,38,_REACTION_TIME_,6941
1580146670,af3ac6bb9c9a717a43876b97fd6bd8e1,completion,30,0,stat_high,10,in,55
1580146670,af3ac6bb9c9a717a43876b97fd6bd8e1,completion,30,0,stat_high,10,_REACTION_TIME_,43222
1580146670,af3ac6bb9c9a717a43876b97fd6bd8e1,completion,30,1,stat_high,10,in,l'avait humilié
1580146670,af3ac6bb9c9a717a43876b97fd6bd8e1,completion,30,1,stat_high,10,_REACTION_TIME_,41870
1580146670,af3ac6bb9c9a717a43876b97fd6bd8e1,completion,69,0,filler,68,in,éteindre le feu
1580146670,af3ac6bb9c9a717a43876b97fd6bd8e1,completion,69,0,filler,68,_REACTION_TIME_,17477
1580146670,af3ac6bb9c9a717a43876b97fd6bd8e1,completion,15,0,stat_low,3,in,111
1580146670,af3ac6bb9c9a717a43876b97fd6bd8e1,completion,15,0,stat_low,3,_REACTION_TIME_,21422
1580146670,af3ac6bb9c9a717a43876b97fd6bd8e1,completion,15,1,stat_low,3,in,lui ont ensuite proposé de rentrer visiter le jardin de la demeure
1580146670,af3ac6bb9c9a717a43876b97fd6bd8e1,completion,15,1,stat_low,3,_REACTION_TIME_,44421
1580146670,af3ac6bb9c9a717a43876b97fd6bd8e1,completion,47,0,stat_low,19,in,107
1580146670,af3ac6bb9c9a717a43876b97fd6bd8e1,completion,47,0,stat_low,19,_REACTION_TIME_,20885
1580146670,af3ac6bb9c9a717a43876b97fd6bd8e1,completion,47,1,stat_low,19,in,l'a ensuite permis d'accéder aux loges
1580146670,af3ac6bb9c9a717a43876b97fd6bd8e1,completion,47,1,stat_low,19,_REACTION_TIME_,20814
1580146670,af3ac6bb9c9a717a43876b97fd6bd8e1,completion,63,0,filler,62,in,très bruyant comme musique
1580146670,af3ac6bb9c9a717a43876b97fd6bd8e1,completion,63,0,filler,62,_REACTION_TIME_,15461
#
# Results on Tuesday January 28 2020 11:13:10 UTC.
# USER AGENT: Mozilla/5.0 (Macintosh; Intel Mac OS X 10_14_6) AppleWebKit/605.1.15 (KHTML, like Gecko) Version/13.0.2 Safari/605.1.15
# Design number was non-random = 3
#
# Columns below this comment are as follows:
# 1. Time results were received.
# 2. MD5 hash of participant's IP address.
# 3. Controller name.
# 4. Item number.
# 5. Element number.
# 6. Type.
# 7. Group.
# 8. Field name.
# 9. Field value.
1580209990,62647282935b1ad6561063527fd39a1b,completion,2,0,intro,NULL,age,25
1580209990,62647282935b1ad6561063527fd39a1b,completion,2,0,intro,NULL,nationality,française
1580209990,62647282935b1ad6561063527fd39a1b,completion,2,0,intro,NULL,activity,Langue
1580209990,62647282935b1ad6561063527fd39a1b,completion,2,0,intro,NULL,birth,Les Abymes
1580209990,62647282935b1ad6561063527fd39a1b,completion,2,0,intro,NULL,L1,français
1580209990,62647282935b1ad6561063527fd39a1b,completion,2,0,intro,NULL,L1,94400
1580209990,62647282935b1ad6561063527fd39a1b,completion,2,0,intro,NULL,consent,yes
1580209990,62647282935b1ad6561063527fd39a1b,completion,2,0,intro,NULL,gender,female
1580209990,62647282935b1ad6561063527fd39a1b,completion,2,0,intro,NULL,academics,L2
1580209990,62647282935b1ad6561063527fd39a1b,completion,2,0,intro,NULL,_REACTION_TIME_,3530285
1580209990,62647282935b1ad6561063527fd39a1b,completion,7,0,practice,32,in,61
1580209990,62647282935b1ad6561063527fd39a1b,completion,7,0,practice,32,_REACTION_TIME_,45510
1580209990,62647282935b1ad6561063527fd39a1b,completion,3,0,practice,102,in,lundi.
1580209990,62647282935b1ad6561063527fd39a1b,completion,3,0,practice,102,_REACTION_TIME_,9357
1580209990,62647282935b1ad6561063527fd39a1b,completion,5,0,practice,101,in,équipements.
1580209990,62647282935b1ad6561063527fd39a1b,completion,5,0,practice,101,_REACTION_TIME_,10372
1580209990,62647282935b1ad6561063527fd39a1b,completion,9,0,practice,34,in,37
1580209990,62647282935b1ad6561063527fd39a1b,completion,9,0,practice,34,_REACTION_TIME_,12597
1580209990,62647282935b1ad6561063527fd39a1b,completion,4,0,practice,103,in,et belles.
1580209990,62647282935b1ad6561063527fd39a1b,completion,4,0,practice,103,_REACTION_TIME_,8285
1580209990,62647282935b1ad6561063527fd39a1b,completion,20,0,stat_high,5,in,44%2C5
1580209990,62647282935b1ad6561063527fd39a1b,completion,20,0,stat_high,5,_REACTION_TIME_,72673
1580209990,62647282935b1ad6561063527fd39a1b,completion,20,1,stat_high,5,in,s'occupe de lui.
1580209990,62647282935b1ad6561063527fd39a1b,completion,20,1,stat_high,5,_REACTION_TIME_,14732
1580209990,62647282935b1ad6561063527fd39a1b,completion,64,0,filler,63,in,sushis ?
1580209990,62647282935b1ad6561063527fd39a1b,completion,64,0,filler,63,_REACTION_TIME_,15806
1580209990,62647282935b1ad6561063527fd39a1b,completion,41,0,stat_low,16,in,101
1580209990,62647282935b1ad6561063527fd39a1b,completion,41,0,stat_low,16,_REACTION_TIME_,76366
1580209990,62647282935b1ad6561063527fd39a1b,completion,41,1,stat_low,16,in,sont nouveaux.
1580209990,62647282935b1ad6561063527fd39a1b,completion,41,1,stat_low,16,_REACTION_TIME_,22918
1580209990,62647282935b1ad6561063527fd39a1b,completion,62,0,filler,61,in,relaxation.
1580209990,62647282935b1ad6561063527fd39a1b,completion,62,0,filler,61,_REACTION_TIME_,18349
1580209990,62647282935b1ad6561063527fd39a1b,completion,32,0,stat_high,11,in,120
1580209990,62647282935b1ad6561063527fd39a1b,completion,32,0,stat_high,11,_REACTION_TIME_,56606
1580209990,62647282935b1ad6561063527fd39a1b,completion,32,1,stat_high,11,in,est sont amie d'enfance.
1580209990,62647282935b1ad6561063527fd39a1b,completion,32,1,stat_high,11,_REACTION_TIME_,26878
1580209990,62647282935b1ad6561063527fd39a1b,completion,60,0,FM,40,in,15
1580209990,62647282935b1ad6561063527fd39a1b,completion,60,0,FM,40,_REACTION_TIME_,57558
1580209990,62647282935b1ad6561063527fd39a1b,completion,45,0,stat_low,18,in,99
1580209990,62647282935b1ad6561063527fd39a1b,completion,45,0,stat_low,18,_REACTION_TIME_,27156
1580209990,62647282935b1ad6561063527fd39a1b,completion,45,1,stat_low,18,in,lui a fait du charme.
1580209990,62647282935b1ad6561063527fd39a1b,completion,45,1,stat_low,18,_REACTION_TIME_,23510
1580209990,62647282935b1ad6561063527fd39a1b,completion,67,0,filler,66,in,tous les participants.
1580209990,62647282935b1ad6561063527fd39a1b,completion,67,0,filler,66,_REACTION_TIME_,26022
1580209990,62647282935b1ad6561063527fd39a1b,completion,17,0,stat_low,4,in,93
1580209990,62647282935b1ad6561063527fd39a1b,completion,17,0,stat_low,4,_REACTION_TIME_,35621
1580209990,62647282935b1ad6561063527fd39a1b,completion,17,1,stat_low,4,in,la recruté le mois dernier.
1580209990,62647282935b1ad6561063527fd39a1b,completion,17,1,stat_low,4,_REACTION_TIME_,43245
1580209990,62647282935b1ad6561063527fd39a1b,completion,68,0,filler,67,in,un itinéraire très précis.
1580209990,62647282935b1ad6561063527fd39a1b,completion,68,0,filler,67,_REACTION_TIME_,12269
1580209990,62647282935b1ad6561063527fd39a1b,completion,21,0,stat_low,6,in,116
1580209990,62647282935b1ad6561063527fd39a1b,completion,21,0,stat_low,6,_REACTION_TIME_,31325
1580209990,62647282935b1ad6561063527fd39a1b,completion,21,1,stat_low,6,in,l'ont torturé.
1580209990,62647282935b1ad6561063527fd39a1b,completion,21,1,stat_low,6,_REACTION_TIME_,18870
1580209990,62647282935b1ad6561063527fd39a1b,completion,61,0,filler,60,in,son matériel.
1580209990,62647282935b1ad6561063527fd39a1b,completion,61,0,filler,60,_REACTION_TIME_,14566
1580209990,62647282935b1ad6561063527fd39a1b,completion,48,0,stat_high,19,in,119
1580209990,62647282935b1ad6561063527fd39a1b,completion,48,0,stat_high,19,_REACTION_TIME_,47309
1580209990,62647282935b1ad6561063527fd39a1b,completion,48,1,stat_high,19,in,se produisent tous les samedis.
1580209990,62647282935b1ad6561063527fd39a1b,completion,48,1,stat_high,19,_REACTION_TIME_,18909
1580209990,62647282935b1ad6561063527fd39a1b,completion,66,0,filler,65,in,à jouer du piano.
1580209990,62647282935b1ad6561063527fd39a1b,completion,66,0,filler,65,_REACTION_TIME_,14134
1580209990,62647282935b1ad6561063527fd39a1b,completion,29,0,stat_low,10,in,103
1580209990,62647282935b1ad6561063527fd39a1b,completion,29,0,stat_low,10,_REACTION_TIME_,37950
1580209990,62647282935b1ad6561063527fd39a1b,completion,29,1,stat_low,10,in,lui a demandé son numéro lundi dernier.
1580209990,62647282935b1ad6561063527fd39a1b,completion,29,1,stat_low,10,_REACTION_TIME_,48726
1580209990,62647282935b1ad6561063527fd39a1b,completion,58,0,FM,38,in,21
1580209990,62647282935b1ad6561063527fd39a1b,completion,58,0,FM,38,_REACTION_TIME_,11918
1580209990,62647282935b1ad6561063527fd39a1b,completion,28,0,stat_high,9,in,51
1580209990,62647282935b1ad6561063527fd39a1b,completion,28,0,stat_high,9,_REACTION_TIME_,56606
1580209990,62647282935b1ad6561063527fd39a1b,completion,28,1,stat_high,9,in,l'a trompé.
1580209990,62647282935b1ad6561063527fd39a1b,completion,28,1,stat_high,9,_REACTION_TIME_,38846
1580209990,62647282935b1ad6561063527fd39a1b,completion,56,0,FM,36,in,34
1580209990,62647282935b1ad6561063527fd39a1b,completion,56,0,FM,36,_REACTION_TIME_,52366
1580209990,62647282935b1ad6561063527fd39a1b,completion,44,0,stat_high,17,in,79
1580209990,62647282935b1ad6561063527fd39a1b,completion,44,0,stat_high,17,_REACTION_TIME_,48181
1580209990,62647282935b1ad6561063527fd39a1b,completion,44,1,stat_high,17,in,s'occupaient des comptes de celui ci.
1580209990,62647282935b1ad6561063527fd39a1b,completion,44,1,stat_high,17,_REACTION_TIME_,49685
1580209990,62647282935b1ad6561063527fd39a1b,completion,49,0,stat_low,20,in,100
1580209990,62647282935b1ad6561063527fd39a1b,completion,49,0,stat_low,20,_REACTION_TIME_,10030
1580209990,62647282935b1ad6561063527fd39a1b,completion,49,1,stat_low,20,in,est célèbre dans toute la France.
1580209990,62647282935b1ad6561063527fd39a1b,completion,49,1,stat_low,20,_REACTION_TIME_,24757
1580209990,62647282935b1ad6561063527fd39a1b,completion,57,0,FM,37,in,7
1580209990,62647282935b1ad6561063527fd39a1b,completion,57,0,FM,37,_REACTION_TIME_,15885
1580209990,62647282935b1ad6561063527fd39a1b,completion,24,0,stat_high,7,in,70
1580209990,62647282935b1ad6561063527fd39a1b,completion,24,0,stat_high,7,_REACTION_TIME_,15777
1580209990,62647282935b1ad6561063527fd39a1b,completion,24,1,stat_high,7,in,a fait le tube de l'été.
1580209990,62647282935b1ad6561063527fd39a1b,completion,24,1,stat_high,7,_REACTION_TIME_,46324
1580209990,62647282935b1ad6561063527fd39a1b,completion,55,0,FM,35,in,4
1580209990,62647282935b1ad6561063527fd39a1b,completion,55,0,FM,35,_REACTION_TIME_,19677
1580209990,62647282935b1ad6561063527fd39a1b,completion,25,0,stat_low,8,in,83
1580209990,62647282935b1ad6561063527fd39a1b,completion,25,0,stat_low,8,_REACTION_TIME_,15989
1580209990,62647282935b1ad6561063527fd39a1b,completion,25,1,stat_low,8,in,la salué ce matin.
1580209990,62647282935b1ad6561063527fd39a1b,completion,25,1,stat_low,8,_REACTION_TIME_,28197
1580209990,62647282935b1ad6561063527fd39a1b,completion,65,0,filler,64,in,cinéma.
1580209990,62647282935b1ad6561063527fd39a1b,completion,65,0,filler,64,_REACTION_TIME_,10021
1580209990,62647282935b1ad6561063527fd39a1b,completion,36,0,stat_high,13,in,108
1580209990,62647282935b1ad6561063527fd39a1b,completion,36,0,stat_high,13,_REACTION_TIME_,18398
1580209990,62647282935b1ad6561063527fd39a1b,completion,36,1,stat_high,13,in,était absent depuis plus d'un mois.
1580209990,62647282935b1ad6561063527fd39a1b,completion,36,1,stat_high,13,_REACTION_TIME_,39694
1580209990,62647282935b1ad6561063527fd39a1b,completion,53,0,FM,33,in,0
1580209990,62647282935b1ad6561063527fd39a1b,completion,53,0,FM,33,_REACTION_TIME_,45422
1580209990,62647282935b1ad6561063527fd39a1b,completion,12,0,stat_high,1,in,59
1580209990,62647282935b1ad6561063527fd39a1b,completion,12,0,stat_high,1,_REACTION_TIME_,37054
1580209990,62647282935b1ad6561063527fd39a1b,completion,12,1,stat_high,1,in,a été interrogé par la police.
1580209990,62647282935b1ad6561063527fd39a1b,completion,12,1,stat_high,1,_REACTION_TIME_,34845
1580209990,62647282935b1ad6561063527fd39a1b,completion,51,0,FM,31,in,13
1580209990,62647282935b1ad6561063527fd39a1b,completion,51,0,FM,31,_REACTION_TIME_,10909
1580209990,62647282935b1ad6561063527fd39a1b,completion,16,0,stat_high,3,in,59
1580209990,62647282935b1ad6561063527fd39a1b,completion,16,0,stat_high,3,_REACTION_TIME_,30205
1580209990,62647282935b1ad6561063527fd39a1b,completion,16,1,stat_high,3,in,a emménagé récemment. 
1580209990,62647282935b1ad6561063527fd39a1b,completion,16,1,stat_high,3,_REACTION_TIME_,33462
1580209990,62647282935b1ad6561063527fd39a1b,completion,70,0,filler,69,in,à l'entrainement.
1580209990,62647282935b1ad6561063527fd39a1b,completion,70,0,filler,69,_REACTION_TIME_,11077
1580209990,62647282935b1ad6561063527fd39a1b,completion,13,0,stat_low,2,in,116
1580209990,62647282935b1ad6561063527fd39a1b,completion,13,0,stat_low,2,_REACTION_TIME_,25494
1580209990,62647282935b1ad6561063527fd39a1b,completion,13,1,stat_low,2,in,l'apprécie fortement.
1580209990,62647282935b1ad6561063527fd39a1b,completion,13,1,stat_low,2,_REACTION_TIME_,26221
1580209990,62647282935b1ad6561063527fd39a1b,completion,59,0,FM,39,in,25
1580209990,62647282935b1ad6561063527fd39a1b,completion,59,0,FM,39,_REACTION_TIME_,8094
1580209990,62647282935b1ad6561063527fd39a1b,completion,40,0,stat_high,15,in,78
1580209990,62647282935b1ad6561063527fd39a1b,completion,40,0,stat_high,15,_REACTION_TIME_,44709
1580209990,62647282935b1ad6561063527fd39a1b,completion,40,1,stat_high,15,in,ont fugués.
1580209990,62647282935b1ad6561063527fd39a1b,completion,40,1,stat_high,15,_REACTION_TIME_,20781
1580209990,62647282935b1ad6561063527fd39a1b,completion,69,0,filler,68,in,la nouvelle année.
1580209990,62647282935b1ad6561063527fd39a1b,completion,69,0,filler,68,_REACTION_TIME_,9798
1580209990,62647282935b1ad6561063527fd39a1b,completion,33,0,stat_low,12,in,104
1580209990,62647282935b1ad6561063527fd39a1b,completion,33,0,stat_low,12,_REACTION_TIME_,36422
1580209990,62647282935b1ad6561063527fd39a1b,completion,33,1,stat_low,12,in,a une barbe bleue.
1580209990,62647282935b1ad6561063527fd39a1b,completion,33,1,stat_low,12,_REACTION_TIME_,19894
1580209990,62647282935b1ad6561063527fd39a1b,completion,63,0,filler,62,in,dépassé.
1580209990,62647282935b1ad6561063527fd39a1b,completion,63,0,filler,62,_REACTION_TIME_,10638
1580209990,62647282935b1ad6561063527fd39a1b,completion,37,0,stat_low,14,in,108
1580209990,62647282935b1ad6561063527fd39a1b,completion,37,0,stat_low,14,_REACTION_TIME_,19493
1580209990,62647282935b1ad6561063527fd39a1b,completion,37,1,stat_low,14,in,était très enthousiaste.
1580209990,62647282935b1ad6561063527fd39a1b,completion,37,1,stat_low,14,_REACTION_TIME_,24646
#
# Results on Tuesday January 28 2020 13:19:38 UTC.
# USER AGENT: Mozilla/5.0 (Macintosh; Intel Mac OS X 10_14_6) AppleWebKit/605.1.15 (KHTML, like Gecko) Version/13.0.2 Safari/605.1.15
# Design number was non-random = 4
#
# Columns below this comment are as follows:
# 1. Time results were received.
# 2. MD5 hash of participant's IP address.
# 3. Controller name.
# 4. Item number.
# 5. Element number.
# 6. Type.
# 7. Group.
# 8. Field name.
# 9. Field value.
1580217578,a8db904469210c4b1b9ed36b4b985493,completion,2,0,intro,NULL,age,34
1580217578,a8db904469210c4b1b9ed36b4b985493,completion,2,0,intro,NULL,nationality,francaise
1580217578,a8db904469210c4b1b9ed36b4b985493,completion,2,0,intro,NULL,activity,médical 
1580217578,a8db904469210c4b1b9ed36b4b985493,completion,2,0,intro,NULL,birth,hauts de seine 
1580217578,a8db904469210c4b1b9ed36b4b985493,completion,2,0,intro,NULL,L1,français 
1580217578,a8db904469210c4b1b9ed36b4b985493,completion,2,0,intro,NULL,L1,soleil
1580217578,a8db904469210c4b1b9ed36b4b985493,completion,2,0,intro,NULL,consent,yes
1580217578,a8db904469210c4b1b9ed36b4b985493,completion,2,0,intro,NULL,gender,female
1580217578,a8db904469210c4b1b9ed36b4b985493,completion,2,0,intro,NULL,academics,M2
1580217578,a8db904469210c4b1b9ed36b4b985493,completion,2,0,intro,NULL,_REACTION_TIME_,3665285
1580217578,a8db904469210c4b1b9ed36b4b985493,completion,3,0,practice,102,in,lundi. 
1580217578,a8db904469210c4b1b9ed36b4b985493,completion,3,0,practice,102,_REACTION_TIME_,29344
1580217578,a8db904469210c4b1b9ed36b4b985493,completion,10,0,practice,35,in,21
1580217578,a8db904469210c4b1b9ed36b4b985493,completion,10,0,practice,35,_REACTION_TIME_,26004
1580217578,a8db904469210c4b1b9ed36b4b985493,completion,8,0,practice,33,in,28
1580217578,a8db904469210c4b1b9ed36b4b985493,completion,8,0,practice,33,_REACTION_TIME_,10061
1580217578,a8db904469210c4b1b9ed36b4b985493,completion,6,0,practice,31,in,76
1580217578,a8db904469210c4b1b9ed36b4b985493,completion,6,0,practice,31,_REACTION_TIME_,8413
1580217578,a8db904469210c4b1b9ed36b4b985493,completion,4,0,practice,103,in,des granny. 
1580217578,a8db904469210c4b1b9ed36b4b985493,completion,4,0,practice,103,_REACTION_TIME_,12381
1580217578,a8db904469210c4b1b9ed36b4b985493,completion,5,0,practice,101,in,leur téléphone. 
1580217578,a8db904469210c4b1b9ed36b4b985493,completion,5,0,practice,101,_REACTION_TIME_,13717
1580217578,a8db904469210c4b1b9ed36b4b985493,completion,47,0,stat_low,19,in,107
1580217578,a8db904469210c4b1b9ed36b4b985493,completion,47,0,stat_low,19,_REACTION_TIME_,17562
1580217578,a8db904469210c4b1b9ed36b4b985493,completion,47,1,stat_low,19,in,est cool. 
1580217578,a8db904469210c4b1b9ed36b4b985493,completion,47,1,stat_low,19,_REACTION_TIME_,11501
1580217578,a8db904469210c4b1b9ed36b4b985493,completion,57,0,FM,37,in,7
1580217578,a8db904469210c4b1b9ed36b4b985493,completion,57,0,FM,37,_REACTION_TIME_,4613
1580217578,a8db904469210c4b1b9ed36b4b985493,completion,18,0,stat_high,4,in,55
1580217578,a8db904469210c4b1b9ed36b4b985493,completion,18,0,stat_high,4,_REACTION_TIME_,14532
1580217578,a8db904469210c4b1b9ed36b4b985493,completion,18,1,stat_high,4,in,sont très professionnels. 
1580217578,a8db904469210c4b1b9ed36b4b985493,completion,18,1,stat_high,4,_REACTION_TIME_,13693
1580217578,a8db904469210c4b1b9ed36b4b985493,completion,56,0,FM,36,in,24
1580217578,a8db904469210c4b1b9ed36b4b985493,completion,56,0,FM,36,_REACTION_TIME_,22309
1580217578,a8db904469210c4b1b9ed36b4b985493,completion,26,0,stat_high,8,in,58
1580217578,a8db904469210c4b1b9ed36b4b985493,completion,26,0,stat_high,8,_REACTION_TIME_,18892
1580217578,a8db904469210c4b1b9ed36b4b985493,completion,26,1,stat_high,8,in,était présent%2C des croissants. 
1580217578,a8db904469210c4b1b9ed36b4b985493,completion,26,1,stat_high,8,_REACTION_TIME_,37964
1580217578,a8db904469210c4b1b9ed36b4b985493,completion,54,0,FM,34,in,28
1580217578,a8db904469210c4b1b9ed36b4b985493,completion,54,0,FM,34,_REACTION_TIME_,18349
1580217578,a8db904469210c4b1b9ed36b4b985493,completion,22,0,stat_high,6,in,79
1580217578,a8db904469210c4b1b9ed36b4b985493,completion,22,0,stat_high,6,_REACTION_TIME_,29589
1580217578,a8db904469210c4b1b9ed36b4b985493,completion,22,1,stat_high,6,in,étaient disproportionnées. 
1580217578,a8db904469210c4b1b9ed36b4b985493,completion,22,1,stat_high,6,_REACTION_TIME_,21926
1580217578,a8db904469210c4b1b9ed36b4b985493,completion,66,0,filler,65,in,à jouer. 
1580217578,a8db904469210c4b1b9ed36b4b985493,completion,66,0,filler,65,_REACTION_TIME_,8933
1580217578,a8db904469210c4b1b9ed36b4b985493,completion,31,0,stat_low,11,in,97
1580217578,a8db904469210c4b1b9ed36b4b985493,completion,31,0,stat_low,11,_REACTION_TIME_,12509
1580217578,a8db904469210c4b1b9ed36b4b985493,completion,31,1,stat_low,11,in,étaient bourrés. 
1580217578,a8db904469210c4b1b9ed36b4b985493,completion,31,1,stat_low,11,_REACTION_TIME_,18957
1580217578,a8db904469210c4b1b9ed36b4b985493,completion,62,0,filler,61,in,sudistes!
1580217578,a8db904469210c4b1b9ed36b4b985493,completion,62,0,filler,61,_REACTION_TIME_,9350
1580217578,a8db904469210c4b1b9ed36b4b985493,completion,15,0,stat_low,3,in,111
1580217578,a8db904469210c4b1b9ed36b4b985493,completion,15,0,stat_low,3,_REACTION_TIME_,11189
1580217578,a8db904469210c4b1b9ed36b4b985493,completion,15,1,stat_low,3,in,sont russes. 
1580217578,a8db904469210c4b1b9ed36b4b985493,completion,15,1,stat_low,3,_REACTION_TIME_,15301
1580217578,a8db904469210c4b1b9ed36b4b985493,completion,35,0,stat_low,13,in,106
1580217578,a8db904469210c4b1b9ed36b4b985493,completion,35,0,stat_low,13,_REACTION_TIME_,10398
1580217578,a8db904469210c4b1b9ed36b4b985493,completion,35,1,stat_low,13,in,était timide. 
1580217578,a8db904469210c4b1b9ed36b4b985493,completion,35,1,stat_low,13,_REACTION_TIME_,16956
1580217578,a8db904469210c4b1b9ed36b4b985493,completion,67,0,filler,66,in,l'élève PAUL. 
1580217578,a8db904469210c4b1b9ed36b4b985493,completion,67,0,filler,66,_REACTION_TIME_,15053
1580217578,a8db904469210c4b1b9ed36b4b985493,completion,42,0,stat_high,16,in,55
1580217578,a8db904469210c4b1b9ed36b4b985493,completion,42,0,stat_high,16,_REACTION_TIME_,22366
1580217578,a8db904469210c4b1b9ed36b4b985493,completion,42,1,stat_high,16,in,ne voulaient rire faire. 
1580217578,a8db904469210c4b1b9ed36b4b985493,completion,42,1,stat_high,16,_REACTION_TIME_,21236
1580217578,a8db904469210c4b1b9ed36b4b985493,completion,63,0,filler,62,in,top!
1580217578,a8db904469210c4b1b9ed36b4b985493,completion,63,0,filler,62,_REACTION_TIME_,10518
1580217578,a8db904469210c4b1b9ed36b4b985493,completion,39,0,stat_low,15,in,96
1580217578,a8db904469210c4b1b9ed36b4b985493,completion,39,0,stat_low,15,_REACTION_TIME_,16852
1580217578,a8db904469210c4b1b9ed36b4b985493,completion,39,1,stat_low,15,in,sont très jeunes. 
1580217578,a8db904469210c4b1b9ed36b4b985493,completion,39,1,stat_low,15,_REACTION_TIME_,14261
1580217578,a8db904469210c4b1b9ed36b4b985493,completion,70,0,filler,69,in,à la plage. 
1580217578,a8db904469210c4b1b9ed36b4b985493,completion,70,0,filler,69,_REACTION_TIME_,6853
1580217578,a8db904469210c4b1b9ed36b4b985493,completion,43,0,stat_low,17,in,98
1580217578,a8db904469210c4b1b9ed36b4b985493,completion,43,0,stat_low,17,_REACTION_TIME_,7781
1580217578,a8db904469210c4b1b9ed36b4b985493,completion,43,1,stat_low,17,in,ne savent pas travailler. 
1580217578,a8db904469210c4b1b9ed36b4b985493,completion,43,1,stat_low,17,_REACTION_TIME_,12814
1580217578,a8db904469210c4b1b9ed36b4b985493,completion,69,0,filler,68,in,une intervention concernant un incendie dans le 15ème. 
1580217578,a8db904469210c4b1b9ed36b4b985493,completion,69,0,filler,68,_REACTION_TIME_,23964
1580217578,a8db904469210c4b1b9ed36b4b985493,completion,14,0,stat_high,2,in,70
1580217578,a8db904469210c4b1b9ed36b4b985493,completion,14,0,stat_high,2,_REACTION_TIME_,41951
1580217578,a8db904469210c4b1b9ed36b4b985493,completion,14,1,stat_high,2,in,étaient débutants. 
1580217578,a8db904469210c4b1b9ed36b4b985493,completion,14,1,stat_high,2,_REACTION_TIME_,21053
1580217578,a8db904469210c4b1b9ed36b4b985493,completion,61,0,filler,60,in,l'équipement pour le dimanche. 
1580217578,a8db904469210c4b1b9ed36b4b985493,completion,61,0,filler,60,_REACTION_TIME_,13742
1580217578,a8db904469210c4b1b9ed36b4b985493,completion,11,0,stat_low,1,in,111
1580217578,a8db904469210c4b1b9ed36b4b985493,completion,11,0,stat_low,1,_REACTION_TIME_,7238
1580217578,a8db904469210c4b1b9ed36b4b985493,completion,11,1,stat_low,1,in,ne sont pas polis. 
1580217578,a8db904469210c4b1b9ed36b4b985493,completion,11,1,stat_low,1,_REACTION_TIME_,14502
1580217578,a8db904469210c4b1b9ed36b4b985493,completion,60,0,FM,40,in,15
1580217578,a8db904469210c4b1b9ed36b4b985493,completion,60,0,FM,40,_REACTION_TIME_,11175
1580217578,a8db904469210c4b1b9ed36b4b985493,completion,50,0,stat_high,20,in,51
1580217578,a8db904469210c4b1b9ed36b4b985493,completion,50,0,stat_high,20,_REACTION_TIME_,18933
1580217578,a8db904469210c4b1b9ed36b4b985493,completion,50,1,stat_high,20,in,était passionné et calme. 
1580217578,a8db904469210c4b1b9ed36b4b985493,completion,50,1,stat_high,20,_REACTION_TIME_,17654
1580217578,a8db904469210c4b1b9ed36b4b985493,completion,38,0,stat_high,14,in,80
1580217578,a8db904469210c4b1b9ed36b4b985493,completion,38,0,stat_high,14,_REACTION_TIME_,17709
1580217578,a8db904469210c4b1b9ed36b4b985493,completion,38,1,stat_high,14,in,était bruyant. 
1580217578,a8db904469210c4b1b9ed36b4b985493,completion,38,1,stat_high,14,_REACTION_TIME_,11021
1580217578,a8db904469210c4b1b9ed36b4b985493,completion,59,0,FM,39,in,25
1580217578,a8db904469210c4b1b9ed36b4b985493,completion,59,0,FM,39,_REACTION_TIME_,7412
1580217578,a8db904469210c4b1b9ed36b4b985493,completion,30,0,stat_high,10,in,55
1580217578,a8db904469210c4b1b9ed36b4b985493,completion,30,0,stat_high,10,_REACTION_TIME_,26176
1580217578,a8db904469210c4b1b9ed36b4b985493,completion,30,1,stat_high,10,in,restait impoli. 
1580217578,a8db904469210c4b1b9ed36b4b985493,completion,30,1,stat_high,10,_REACTION_TIME_,22174
1580217578,a8db904469210c4b1b9ed36b4b985493,completion,68,0,filler,67,in,le circuit de Formule 1. 
1580217578,a8db904469210c4b1b9ed36b4b985493,completion,68,0,filler,67,_REACTION_TIME_,14110
1580217578,a8db904469210c4b1b9ed36b4b985493,completion,34,0,stat_high,12,in,55
1580217578,a8db904469210c4b1b9ed36b4b985493,completion,34,0,stat_high,12,_REACTION_TIME_,16781
1580217578,a8db904469210c4b1b9ed36b4b985493,completion,34,1,stat_high,12,in,lui a donné une chance d'enregistrer un morceau. 
1580217578,a8db904469210c4b1b9ed36b4b985493,completion,34,1,stat_high,12,_REACTION_TIME_,23102
1580217578,a8db904469210c4b1b9ed36b4b985493,completion,64,0,filler,63,in,CD.
1580217578,a8db904469210c4b1b9ed36b4b985493,completion,64,0,filler,63,_REACTION_TIME_,9005
1580217578,a8db904469210c4b1b9ed36b4b985493,completion,27,0,stat_low,9,in,95
1580217578,a8db904469210c4b1b9ed36b4b985493,completion,27,0,stat_low,9,_REACTION_TIME_,6782
1580217578,a8db904469210c4b1b9ed36b4b985493,completion,27,1,stat_low,9,in,n'était pas honnête. 
1580217578,a8db904469210c4b1b9ed36b4b985493,completion,27,1,stat_low,9,_REACTION_TIME_,17134
1580217578,a8db904469210c4b1b9ed36b4b985493,completion,58,0,FM,38,in,21
1580217578,a8db904469210c4b1b9ed36b4b985493,completion,58,0,FM,38,_REACTION_TIME_,17694
1580217578,a8db904469210c4b1b9ed36b4b985493,completion,23,0,stat_low,7,in,108
1580217578,a8db904469210c4b1b9ed36b4b985493,completion,23,0,stat_low,7,_REACTION_TIME_,15190
1580217578,a8db904469210c4b1b9ed36b4b985493,completion,23,1,stat_low,7,in,étaient concentrés. 
1580217578,a8db904469210c4b1b9ed36b4b985493,completion,23,1,stat_low,7,_REACTION_TIME_,14742
1580217578,a8db904469210c4b1b9ed36b4b985493,completion,65,0,filler,64,in,théâtre. 
1580217578,a8db904469210c4b1b9ed36b4b985493,completion,65,0,filler,64,_REACTION_TIME_,6334
1580217578,a8db904469210c4b1b9ed36b4b985493,completion,19,0,stat_low,5,in,98
1580217578,a8db904469210c4b1b9ed36b4b985493,completion,19,0,stat_low,5,_REACTION_TIME_,13326
1580217578,a8db904469210c4b1b9ed36b4b985493,completion,19,1,stat_low,5,in,gardaient le secret médical. 
1580217578,a8db904469210c4b1b9ed36b4b985493,completion,19,1,stat_low,5,_REACTION_TIME_,19749
1580217578,a8db904469210c4b1b9ed36b4b985493,completion,46,0,stat_high,18,in,69
1580217578,a8db904469210c4b1b9ed36b4b985493,completion,46,0,stat_high,18,_REACTION_TIME_,9879
1580217578,a8db904469210c4b1b9ed36b4b985493,completion,46,1,stat_high,18,in,était compétent. 
1580217578,a8db904469210c4b1b9ed36b4b985493,completion,46,1,stat_high,18,_REACTION_TIME_,10750
1580217578,a8db904469210c4b1b9ed36b4b985493,completion,52,0,FM,32,in,12
1580217578,a8db904469210c4b1b9ed36b4b985493,completion,52,0,FM,32,_REACTION_TIME_,9428
#
# Results on Wednesday January 29 2020 08:54:32 UTC.
# USER AGENT: Mozilla/5.0 (Macintosh; Intel Mac OS X 10_14_6) AppleWebKit/605.1.15 (KHTML, like Gecko) Version/13.0.2 Safari/605.1.15
# Design number was non-random = 5
#
# Columns below this comment are as follows:
# 1. Time results were received.
# 2. MD5 hash of participant's IP address.
# 3. Controller name.
# 4. Item number.
# 5. Element number.
# 6. Type.
# 7. Group.
# 8. Field name.
# 9. Field value.
1580288072,03177178d7d0f0e95ef9220a701a8d74,completion,2,0,intro,NULL,age,25
1580288072,03177178d7d0f0e95ef9220a701a8d74,completion,2,0,intro,NULL,nationality,française
1580288072,03177178d7d0f0e95ef9220a701a8d74,completion,2,0,intro,NULL,activity,orthophonie
1580288072,03177178d7d0f0e95ef9220a701a8d74,completion,2,0,intro,NULL,birth,aquitaine
1580288072,03177178d7d0f0e95ef9220a701a8d74,completion,2,0,intro,NULL,L1,français
1580288072,03177178d7d0f0e95ef9220a701a8d74,completion,2,0,intro,NULL,L1,0505
1580288072,03177178d7d0f0e95ef9220a701a8d74,completion,2,0,intro,NULL,consent,yes
1580288072,03177178d7d0f0e95ef9220a701a8d74,completion,2,0,intro,NULL,gender,female
1580288072,03177178d7d0f0e95ef9220a701a8d74,completion,2,0,intro,NULL,academics,L3
1580288072,03177178d7d0f0e95ef9220a701a8d74,completion,2,0,intro,NULL,_REACTION_TIME_,2524115
1580288072,03177178d7d0f0e95ef9220a701a8d74,completion,5,0,practice,101,in,leurs femmes.
1580288072,03177178d7d0f0e95ef9220a701a8d74,completion,5,0,practice,101,_REACTION_TIME_,12910
1580288072,03177178d7d0f0e95ef9220a701a8d74,completion,3,0,practice,102,in,lundi
1580288072,03177178d7d0f0e95ef9220a701a8d74,completion,3,0,practice,102,_REACTION_TIME_,6621
1580288072,03177178d7d0f0e95ef9220a701a8d74,completion,7,0,practice,32,in,43
1580288072,03177178d7d0f0e95ef9220a701a8d74,completion,7,0,practice,32,_REACTION_TIME_,14433
1580288072,03177178d7d0f0e95ef9220a701a8d74,completion,9,0,practice,34,in,17
1580288072,03177178d7d0f0e95ef9220a701a8d74,completion,9,0,practice,34,_REACTION_TIME_,9690
1580288072,03177178d7d0f0e95ef9220a701a8d74,completion,4,0,practice,103,in,les meilleures.
1580288072,03177178d7d0f0e95ef9220a701a8d74,completion,4,0,practice,103,_REACTION_TIME_,7965
1580288072,03177178d7d0f0e95ef9220a701a8d74,completion,41,0,stat_low,16,in,101
1580288072,03177178d7d0f0e95ef9220a701a8d74,completion,41,0,stat_low,16,_REACTION_TIME_,36754
1580288072,03177178d7d0f0e95ef9220a701a8d74,completion,41,1,stat_low,16,in,le lui ont demandé.
1580288072,03177178d7d0f0e95ef9220a701a8d74,completion,41,1,stat_low,16,_REACTION_TIME_,10860
1580288072,03177178d7d0f0e95ef9220a701a8d74,completion,12,0,stat_high,1,in,65
1580288072,03177178d7d0f0e95ef9220a701a8d74,completion,12,0,stat_high,1,_REACTION_TIME_,34411
1580288072,03177178d7d0f0e95ef9220a701a8d74,completion,12,1,stat_high,1,in,a été accusé de viol.
1580288072,03177178d7d0f0e95ef9220a701a8d74,completion,12,1,stat_high,1,_REACTION_TIME_,13274
1580288072,03177178d7d0f0e95ef9220a701a8d74,completion,61,0,filler,60,in,la prochaine session.
1580288072,03177178d7d0f0e95ef9220a701a8d74,completion,61,0,filler,60,_REACTION_TIME_,13373
1580288072,03177178d7d0f0e95ef9220a701a8d74,completion,32,0,stat_high,11,in,48
1580288072,03177178d7d0f0e95ef9220a701a8d74,completion,32,0,stat_high,11,_REACTION_TIME_,19150
1580288072,03177178d7d0f0e95ef9220a701a8d74,completion,32,1,stat_high,11,in,avaient un canapé-lit.
1580288072,03177178d7d0f0e95ef9220a701a8d74,completion,32,1,stat_high,11,_REACTION_TIME_,38629
1580288072,03177178d7d0f0e95ef9220a701a8d74,completion,63,0,filler,62,in,de la musique.
1580288072,03177178d7d0f0e95ef9220a701a8d74,completion,63,0,filler,62,_REACTION_TIME_,7340
1580288072,03177178d7d0f0e95ef9220a701a8d74,completion,25,0,stat_low,8,in,97
1580288072,03177178d7d0f0e95ef9220a701a8d74,completion,25,0,stat_low,8,_REACTION_TIME_,17805
1580288072,03177178d7d0f0e95ef9220a701a8d74,completion,25,1,stat_low,8,in,étaient présents.
1580288072,03177178d7d0f0e95ef9220a701a8d74,completion,25,1,stat_low,8,_REACTION_TIME_,14514
1580288072,03177178d7d0f0e95ef9220a701a8d74,completion,57,0,FM,37,in,7
1580288072,03177178d7d0f0e95ef9220a701a8d74,completion,57,0,FM,37,_REACTION_TIME_,7413
1580288072,03177178d7d0f0e95ef9220a701a8d74,completion,28,0,stat_high,9,in,54
1580288072,03177178d7d0f0e95ef9220a701a8d74,completion,28,0,stat_high,9,_REACTION_TIME_,24174
1580288072,03177178d7d0f0e95ef9220a701a8d74,completion,28,1,stat_high,9,in,n'était pas en accord avec ses opinions.
1580288072,03177178d7d0f0e95ef9220a701a8d74,completion,28,1,stat_high,9,_REACTION_TIME_,18201
1580288072,03177178d7d0f0e95ef9220a701a8d74,completion,62,0,filler,61,in,durs à cuir.
1580288072,03177178d7d0f0e95ef9220a701a8d74,completion,62,0,filler,61,_REACTION_TIME_,7074
1580288072,03177178d7d0f0e95ef9220a701a8d74,completion,36,0,stat_high,13,in,72
1580288072,03177178d7d0f0e95ef9220a701a8d74,completion,36,0,stat_high,13,_REACTION_TIME_,9582
1580288072,03177178d7d0f0e95ef9220a701a8d74,completion,36,1,stat_high,13,in,font partis de l'atelier musique.
1580288072,03177178d7d0f0e95ef9220a701a8d74,completion,36,1,stat_high,13,_REACTION_TIME_,43534
1580288072,03177178d7d0f0e95ef9220a701a8d74,completion,68,0,filler,67,in,leur cible.
1580288072,03177178d7d0f0e95ef9220a701a8d74,completion,68,0,filler,67,_REACTION_TIME_,11564
1580288072,03177178d7d0f0e95ef9220a701a8d74,completion,49,0,stat_low,20,in,60
1580288072,03177178d7d0f0e95ef9220a701a8d74,completion,49,0,stat_low,20,_REACTION_TIME_,4916
1580288072,03177178d7d0f0e95ef9220a701a8d74,completion,49,1,stat_low,20,in,a navigué durant des décennies.
1580288072,03177178d7d0f0e95ef9220a701a8d74,completion,49,1,stat_low,20,_REACTION_TIME_,40134
1580288072,03177178d7d0f0e95ef9220a701a8d74,completion,53,0,FM,33,in,27
1580288072,03177178d7d0f0e95ef9220a701a8d74,completion,53,0,FM,33,_REACTION_TIME_,4980
1580288072,03177178d7d0f0e95ef9220a701a8d74,completion,13,0,stat_low,2,in,76
1580288072,03177178d7d0f0e95ef9220a701a8d74,completion,13,0,stat_low,2,_REACTION_TIME_,10051
1580288072,03177178d7d0f0e95ef9220a701a8d74,completion,13,1,stat_low,2,in,s'est foulé la cheville.
1580288072,03177178d7d0f0e95ef9220a701a8d74,completion,13,1,stat_low,2,_REACTION_TIME_,12045
1580288072,03177178d7d0f0e95ef9220a701a8d74,completion,70,0,filler,69,in,nager.
1580288072,03177178d7d0f0e95ef9220a701a8d74,completion,70,0,filler,69,_REACTION_TIME_,5421
1580288072,03177178d7d0f0e95ef9220a701a8d74,completion,48,0,stat_high,19,in,59
1580288072,03177178d7d0f0e95ef9220a701a8d74,completion,48,0,stat_high,19,_REACTION_TIME_,9928
1580288072,03177178d7d0f0e95ef9220a701a8d74,completion,48,1,stat_high,19,in,l'a invité au concert.
1580288072,03177178d7d0f0e95ef9220a701a8d74,completion,48,1,stat_high,19,_REACTION_TIME_,22716
1580288072,03177178d7d0f0e95ef9220a701a8d74,completion,64,0,filler,63,in,bananes.
1580288072,03177178d7d0f0e95ef9220a701a8d74,completion,64,0,filler,63,_REACTION_TIME_,6893
1580288072,03177178d7d0f0e95ef9220a701a8d74,completion,16,0,stat_high,3,in,57
1580288072,03177178d7d0f0e95ef9220a701a8d74,completion,16,0,stat_high,3,_REACTION_TIME_,10238
1580288072,03177178d7d0f0e95ef9220a701a8d74,completion,16,1,stat_high,3,in,ont raconté de sacrés potins sur leur employeur.
1580288072,03177178d7d0f0e95ef9220a701a8d74,completion,16,1,stat_high,3,_REACTION_TIME_,36340
1580288072,03177178d7d0f0e95ef9220a701a8d74,completion,51,0,FM,31,in,13
1580288072,03177178d7d0f0e95ef9220a701a8d74,completion,51,0,FM,31,_REACTION_TIME_,5860
1580288072,03177178d7d0f0e95ef9220a701a8d74,completion,29,0,stat_low,10,in,63
1580288072,03177178d7d0f0e95ef9220a701a8d74,completion,29,0,stat_low,10,_REACTION_TIME_,16306
1580288072,03177178d7d0f0e95ef9220a701a8d74,completion,29,1,stat_low,10,in,lui faisait de l'oeil.
1580288072,03177178d7d0f0e95ef9220a701a8d74,completion,29,1,stat_low,10,_REACTION_TIME_,17045
1580288072,03177178d7d0f0e95ef9220a701a8d74,completion,45,0,stat_low,18,in,99
1580288072,03177178d7d0f0e95ef9220a701a8d74,completion,45,0,stat_low,18,_REACTION_TIME_,18508
1580288072,03177178d7d0f0e95ef9220a701a8d74,completion,45,1,stat_low,18,in,en réalité était le fils du patron.
1580288072,03177178d7d0f0e95ef9220a701a8d74,completion,45,1,stat_low,18,_REACTION_TIME_,24581
1580288072,03177178d7d0f0e95ef9220a701a8d74,completion,56,0,FM,36,in,14
1580288072,03177178d7d0f0e95ef9220a701a8d74,completion,56,0,FM,36,_REACTION_TIME_,12292
1580288072,03177178d7d0f0e95ef9220a701a8d74,completion,24,0,stat_high,7,in,70
1580288072,03177178d7d0f0e95ef9220a701a8d74,completion,24,0,stat_high,7,_REACTION_TIME_,15813
1580288072,03177178d7d0f0e95ef9220a701a8d74,completion,24,1,stat_high,7,in,étaient subjugués par le concert.
1580288072,03177178d7d0f0e95ef9220a701a8d74,completion,24,1,stat_high,7,_REACTION_TIME_,26996
1580288072,03177178d7d0f0e95ef9220a701a8d74,completion,59,0,FM,39,in,25
1580288072,03177178d7d0f0e95ef9220a701a8d74,completion,59,0,FM,39,_REACTION_TIME_,4164
1580288072,03177178d7d0f0e95ef9220a701a8d74,completion,20,0,stat_high,5,in,81
1580288072,03177178d7d0f0e95ef9220a701a8d74,completion,20,0,stat_high,5,_REACTION_TIME_,10485
1580288072,03177178d7d0f0e95ef9220a701a8d74,completion,20,1,stat_high,5,in,ont su lui donner de bons conseils.
1580288072,03177178d7d0f0e95ef9220a701a8d74,completion,20,1,stat_high,5,_REACTION_TIME_,30572
1580288072,03177178d7d0f0e95ef9220a701a8d74,completion,55,0,FM,35,in,4
1580288072,03177178d7d0f0e95ef9220a701a8d74,completion,55,0,FM,35,_REACTION_TIME_,4956
1580288072,03177178d7d0f0e95ef9220a701a8d74,completion,17,0,stat_low,4,in,93
1580288072,03177178d7d0f0e95ef9220a701a8d74,completion,17,0,stat_low,4,_REACTION_TIME_,11142
1580288072,03177178d7d0f0e95ef9220a701a8d74,completion,17,1,stat_low,4,in,est morte l'année dernière.
1580288072,03177178d7d0f0e95ef9220a701a8d74,completion,17,1,stat_low,4,_REACTION_TIME_,14180
1580288072,03177178d7d0f0e95ef9220a701a8d74,completion,67,0,filler,66,in,toujours son travail.
1580288072,03177178d7d0f0e95ef9220a701a8d74,completion,67,0,filler,66,_REACTION_TIME_,9093
1580288072,03177178d7d0f0e95ef9220a701a8d74,completion,40,0,stat_high,15,in,75
1580288072,03177178d7d0f0e95ef9220a701a8d74,completion,40,0,stat_high,15,_REACTION_TIME_,22908
1580288072,03177178d7d0f0e95ef9220a701a8d74,completion,40,1,stat_high,15,in,ont été très aimables.
1580288072,03177178d7d0f0e95ef9220a701a8d74,completion,40,1,stat_high,15,_REACTION_TIME_,11121
1580288072,03177178d7d0f0e95ef9220a701a8d74,completion,58,0,FM,38,in,21
1580288072,03177178d7d0f0e95ef9220a701a8d74,completion,58,0,FM,38,_REACTION_TIME_,4733
1580288072,03177178d7d0f0e95ef9220a701a8d74,completion,37,0,stat_low,14,in,108
1580288072,03177178d7d0f0e95ef9220a701a8d74,completion,37,0,stat_low,14,_REACTION_TIME_,8060
1580288072,03177178d7d0f0e95ef9220a701a8d74,completion,37,1,stat_low,14,in,était devant.
1580288072,03177178d7d0f0e95ef9220a701a8d74,completion,37,1,stat_low,14,_REACTION_TIME_,22581
1580288072,03177178d7d0f0e95ef9220a701a8d74,completion,66,0,filler,65,in,son morceau.
1580288072,03177178d7d0f0e95ef9220a701a8d74,completion,66,0,filler,65,_REACTION_TIME_,7380
1580288072,03177178d7d0f0e95ef9220a701a8d74,completion,21,0,stat_low,6,in,116
1580288072,03177178d7d0f0e95ef9220a701a8d74,completion,21,0,stat_low,6,_REACTION_TIME_,10765
1580288072,03177178d7d0f0e95ef9220a701a8d74,completion,21,1,stat_low,6,in,ne savaient pas ce qu'ils faisaient.
1580288072,03177178d7d0f0e95ef9220a701a8d74,completion,21,1,stat_low,6,_REACTION_TIME_,12796
1580288072,03177178d7d0f0e95ef9220a701a8d74,completion,69,0,filler,68,in,éteindre le feu.
1580288072,03177178d7d0f0e95ef9220a701a8d74,completion,69,0,filler,68,_REACTION_TIME_,6862
1580288072,03177178d7d0f0e95ef9220a701a8d74,completion,44,0,stat_high,17,in,79
1580288072,03177178d7d0f0e95ef9220a701a8d74,completion,44,0,stat_high,17,_REACTION_TIME_,8806
1580288072,03177178d7d0f0e95ef9220a701a8d74,completion,44,1,stat_high,17,in,a vécu en 1945.
1580288072,03177178d7d0f0e95ef9220a701a8d74,completion,44,1,stat_high,17,_REACTION_TIME_,12317
1580288072,03177178d7d0f0e95ef9220a701a8d74,completion,60,0,FM,40,in,15
1580288072,03177178d7d0f0e95ef9220a701a8d74,completion,60,0,FM,40,_REACTION_TIME_,8981
1580288072,03177178d7d0f0e95ef9220a701a8d74,completion,33,0,stat_low,12,in,104
1580288072,03177178d7d0f0e95ef9220a701a8d74,completion,33,0,stat_low,12,_REACTION_TIME_,8740
1580288072,03177178d7d0f0e95ef9220a701a8d74,completion,33,1,stat_low,12,in,lui a offert un disque.
1580288072,03177178d7d0f0e95ef9220a701a8d74,completion,33,1,stat_low,12,_REACTION_TIME_,9461
1580288072,03177178d7d0f0e95ef9220a701a8d74,completion,65,0,filler,64,in,cinéma.
1580288072,03177178d7d0f0e95ef9220a701a8d74,completion,65,0,filler,64,_REACTION_TIME_,5299
#
# Results on Wednesday January 29 2020 10:59:37 UTC.
# USER AGENT: Mozilla/5.0 (Macintosh; Intel Mac OS X 10_14_6) AppleWebKit/605.1.15 (KHTML, like Gecko) Version/13.0.2 Safari/605.1.15
# Design number was non-random = 6
#
# Columns below this comment are as follows:
# 1. Time results were received.
# 2. MD5 hash of participant's IP address.
# 3. Controller name.
# 4. Item number.
# 5. Element number.
# 6. Type.
# 7. Group.
# 8. Field name.
# 9. Field value.
1580295577,836cc3f600d22fac3128976c112e5682,completion,2,0,intro,NULL,age,21
1580295577,836cc3f600d22fac3128976c112e5682,completion,2,0,intro,NULL,nationality,française
1580295577,836cc3f600d22fac3128976c112e5682,completion,2,0,intro,NULL,activity,licence de physique
1580295577,836cc3f600d22fac3128976c112e5682,completion,2,0,intro,NULL,birth,Ile de France
1580295577,836cc3f600d22fac3128976c112e5682,completion,2,0,intro,NULL,L1,français
1580295577,836cc3f600d22fac3128976c112e5682,completion,2,0,intro,NULL,L1,alexis
1580295577,836cc3f600d22fac3128976c112e5682,completion,2,0,intro,NULL,consent,yes
1580295577,836cc3f600d22fac3128976c112e5682,completion,2,0,intro,NULL,gender,male
1580295577,836cc3f600d22fac3128976c112e5682,completion,2,0,intro,NULL,academics,L3
1580295577,836cc3f600d22fac3128976c112e5682,completion,2,0,intro,NULL,_REACTION_TIME_,3000864
1580295577,836cc3f600d22fac3128976c112e5682,completion,5,0,practice,101,in,armes
1580295577,836cc3f600d22fac3128976c112e5682,completion,5,0,practice,101,_REACTION_TIME_,21343
1580295577,836cc3f600d22fac3128976c112e5682,completion,4,0,practice,103,in,les meilleures
1580295577,836cc3f600d22fac3128976c112e5682,completion,4,0,practice,103,_REACTION_TIME_,5980
1580295577,836cc3f600d22fac3128976c112e5682,completion,10,0,practice,35,in,21
1580295577,836cc3f600d22fac3128976c112e5682,completion,10,0,practice,35,_REACTION_TIME_,7172
1580295577,836cc3f600d22fac3128976c112e5682,completion,6,0,practice,31,in,76
1580295577,836cc3f600d22fac3128976c112e5682,completion,6,0,practice,31,_REACTION_TIME_,6037
1580295577,836cc3f600d22fac3128976c112e5682,completion,8,0,practice,33,in,28
1580295577,836cc3f600d22fac3128976c112e5682,completion,8,0,practice,33,_REACTION_TIME_,4197
1580295577,836cc3f600d22fac3128976c112e5682,completion,3,0,practice,102,in,dimanche
1580295577,836cc3f600d22fac3128976c112e5682,completion,3,0,practice,102,_REACTION_TIME_,5237
1580295577,836cc3f600d22fac3128976c112e5682,completion,38,0,stat_high,14,in,80
1580295577,836cc3f600d22fac3128976c112e5682,completion,38,0,stat_high,14,_REACTION_TIME_,11665
1580295577,836cc3f600d22fac3128976c112e5682,completion,38,1,stat_high,14,in,manifestait pour l'égalité homme/femme
1580295577,836cc3f600d22fac3128976c112e5682,completion,38,1,stat_high,14,_REACTION_TIME_,22670
1580295577,836cc3f600d22fac3128976c112e5682,completion,65,0,filler,64,in,cinéma et au restaurant
1580295577,836cc3f600d22fac3128976c112e5682,completion,65,0,filler,64,_REACTION_TIME_,9525
1580295577,836cc3f600d22fac3128976c112e5682,completion,30,0,stat_high,10,in,55
1580295577,836cc3f600d22fac3128976c112e5682,completion,30,0,stat_high,10,_REACTION_TIME_,18053
1580295577,836cc3f600d22fac3128976c112e5682,completion,30,1,stat_high,10,in, on supporté l'équipe de baseball
1580295577,836cc3f600d22fac3128976c112e5682,completion,30,1,stat_high,10,_REACTION_TIME_,33020
1580295577,836cc3f600d22fac3128976c112e5682,completion,52,0,FM,32,in,12
1580295577,836cc3f600d22fac3128976c112e5682,completion,52,0,FM,32,_REACTION_TIME_,9740
1580295577,836cc3f600d22fac3128976c112e5682,completion,14,0,stat_high,2,in,70
1580295577,836cc3f600d22fac3128976c112e5682,completion,14,0,stat_high,2,_REACTION_TIME_,9013
1580295577,836cc3f600d22fac3128976c112e5682,completion,14,1,stat_high,2,in,a gagné la course
1580295577,836cc3f600d22fac3128976c112e5682,completion,14,1,stat_high,2,_REACTION_TIME_,11614
1580295577,836cc3f600d22fac3128976c112e5682,completion,54,0,FM,34,in,27
1580295577,836cc3f600d22fac3128976c112e5682,completion,54,0,FM,34,_REACTION_TIME_,19029
1580295577,836cc3f600d22fac3128976c112e5682,completion,26,0,stat_high,8,in,58
1580295577,836cc3f600d22fac3128976c112e5682,completion,26,0,stat_high,8,_REACTION_TIME_,8333
1580295577,836cc3f600d22fac3128976c112e5682,completion,26,1,stat_high,8,in,ont subi une agression
1580295577,836cc3f600d22fac3128976c112e5682,completion,26,1,stat_high,8,_REACTION_TIME_,16206
1580295577,836cc3f600d22fac3128976c112e5682,completion,67,0,filler,66,in,les qualités du jeune recruté
1580295577,836cc3f600d22fac3128976c112e5682,completion,67,0,filler,66,_REACTION_TIME_,17421
1580295577,836cc3f600d22fac3128976c112e5682,completion,39,0,stat_low,15,in,96
1580295577,836cc3f600d22fac3128976c112e5682,completion,39,0,stat_low,15,_REACTION_TIME_,11390
1580295577,836cc3f600d22fac3128976c112e5682,completion,39,1,stat_low,15,in,est parti en vacance
1580295577,836cc3f600d22fac3128976c112e5682,completion,39,1,stat_low,15,_REACTION_TIME_,12262
1580295577,836cc3f600d22fac3128976c112e5682,completion,57,0,FM,37,in,7
1580295577,836cc3f600d22fac3128976c112e5682,completion,57,0,FM,37,_REACTION_TIME_,6300
1580295577,836cc3f600d22fac3128976c112e5682,completion,31,0,stat_low,11,in,97
1580295577,836cc3f600d22fac3128976c112e5682,completion,31,0,stat_low,11,_REACTION_TIME_,7693
1580295577,836cc3f600d22fac3128976c112e5682,completion,31,1,stat_low,11,in,a été transportée à l'hôpital
1580295577,836cc3f600d22fac3128976c112e5682,completion,31,1,stat_low,11,_REACTION_TIME_,24126
1580295577,836cc3f600d22fac3128976c112e5682,completion,22,0,stat_high,6,in,70
1580295577,836cc3f600d22fac3128976c112e5682,completion,22,0,stat_high,6,_REACTION_TIME_,11997
1580295577,836cc3f600d22fac3128976c112e5682,completion,22,1,stat_high,6,in,lui ont fait subir la torture
1580295577,836cc3f600d22fac3128976c112e5682,completion,22,1,stat_high,6,_REACTION_TIME_,19381
1580295577,836cc3f600d22fac3128976c112e5682,completion,69,0,filler,68,in,éteindre l'incendie
1580295577,836cc3f600d22fac3128976c112e5682,completion,69,0,filler,68,_REACTION_TIME_,10030
1580295577,836cc3f600d22fac3128976c112e5682,completion,42,0,stat_high,16,in,55
1580295577,836cc3f600d22fac3128976c112e5682,completion,42,0,stat_high,16,_REACTION_TIME_,11069
1580295577,836cc3f600d22fac3128976c112e5682,completion,42,1,stat_high,16,in,ont monté un coup contre lui
1580295577,836cc3f600d22fac3128976c112e5682,completion,42,1,stat_high,16,_REACTION_TIME_,23757
1580295577,836cc3f600d22fac3128976c112e5682,completion,59,0,FM,39,in,25
1580295577,836cc3f600d22fac3128976c112e5682,completion,59,0,FM,39,_REACTION_TIME_,3358
1580295577,836cc3f600d22fac3128976c112e5682,completion,19,0,stat_low,5,in,98
1580295577,836cc3f600d22fac3128976c112e5682,completion,19,0,stat_low,5,_REACTION_TIME_,5765
1580295577,836cc3f600d22fac3128976c112e5682,completion,19,1,stat_low,5,in,lui ont administré de mauvais soins
1580295577,836cc3f600d22fac3128976c112e5682,completion,19,1,stat_low,5,_REACTION_TIME_,41397
1580295577,836cc3f600d22fac3128976c112e5682,completion,58,0,FM,38,in,21
1580295577,836cc3f600d22fac3128976c112e5682,completion,58,0,FM,38,_REACTION_TIME_,6878
1580295577,836cc3f600d22fac3128976c112e5682,completion,43,0,stat_low,17,in,98
1580295577,836cc3f600d22fac3128976c112e5682,completion,43,0,stat_low,17,_REACTION_TIME_,7742
1580295577,836cc3f600d22fac3128976c112e5682,completion,43,1,stat_low,17,in,ont fait du mauvais travail
1580295577,836cc3f600d22fac3128976c112e5682,completion,43,1,stat_low,17,_REACTION_TIME_,16933
1580295577,836cc3f600d22fac3128976c112e5682,completion,56,0,FM,36,in,14
1580295577,836cc3f600d22fac3128976c112e5682,completion,56,0,FM,36,_REACTION_TIME_,17117
1580295577,836cc3f600d22fac3128976c112e5682,completion,50,0,stat_high,20,in,51
1580295577,836cc3f600d22fac3128976c112e5682,completion,50,0,stat_high,20,_REACTION_TIME_,10909
1580295577,836cc3f600d22fac3128976c112e5682,completion,50,1,stat_high,20,in,a subi une mutinerie
1580295577,836cc3f600d22fac3128976c112e5682,completion,50,1,stat_high,20,_REACTION_TIME_,13422
1580295577,836cc3f600d22fac3128976c112e5682,completion,60,0,FM,40,in,15
1580295577,836cc3f600d22fac3128976c112e5682,completion,60,0,FM,40,_REACTION_TIME_,22222
1580295577,836cc3f600d22fac3128976c112e5682,completion,18,0,stat_high,4,in,55
1580295577,836cc3f600d22fac3128976c112e5682,completion,18,0,stat_high,4,_REACTION_TIME_,9365
1580295577,836cc3f600d22fac3128976c112e5682,completion,18,1,stat_high,4,in,a une renommée mondiale
1580295577,836cc3f600d22fac3128976c112e5682,completion,18,1,stat_high,4,_REACTION_TIME_,32358
1580295577,836cc3f600d22fac3128976c112e5682,completion,61,0,filler,60,in,la sortie du dimanche avec les enfants
1580295577,836cc3f600d22fac3128976c112e5682,completion,61,0,filler,60,_REACTION_TIME_,20709
1580295577,836cc3f600d22fac3128976c112e5682,completion,34,0,stat_high,12,in,55
1580295577,836cc3f600d22fac3128976c112e5682,completion,34,0,stat_high,12,_REACTION_TIME_,15933
1580295577,836cc3f600d22fac3128976c112e5682,completion,34,1,stat_high,12,in,est très séduisant
1580295577,836cc3f600d22fac3128976c112e5682,completion,34,1,stat_high,12,_REACTION_TIME_,13901
1580295577,836cc3f600d22fac3128976c112e5682,completion,35,0,stat_low,13,in,96
1580295577,836cc3f600d22fac3128976c112e5682,completion,35,0,stat_low,13,_REACTION_TIME_,6950
1580295577,836cc3f600d22fac3128976c112e5682,completion,35,1,stat_low,13,in,lui a fait des avances
1580295577,836cc3f600d22fac3128976c112e5682,completion,35,1,stat_low,13,_REACTION_TIME_,18366
1580295577,836cc3f600d22fac3128976c112e5682,completion,66,0,filler,65,in,plus tôt que d'habitude
1580295577,836cc3f600d22fac3128976c112e5682,completion,66,0,filler,65,_REACTION_TIME_,9540
1580295577,836cc3f600d22fac3128976c112e5682,completion,27,0,stat_low,9,in,95
1580295577,836cc3f600d22fac3128976c112e5682,completion,27,0,stat_low,9,_REACTION_TIME_,9941
1580295577,836cc3f600d22fac3128976c112e5682,completion,27,1,stat_low,9,in,s'occupe de la gestion des équipes
1580295577,836cc3f600d22fac3128976c112e5682,completion,27,1,stat_low,9,_REACTION_TIME_,50605
1580295577,836cc3f600d22fac3128976c112e5682,completion,70,0,filler,69,in,au stade de foot
1580295577,836cc3f600d22fac3128976c112e5682,completion,70,0,filler,69,_REACTION_TIME_,11878
1580295577,836cc3f600d22fac3128976c112e5682,completion,23,0,stat_low,7,in,108
1580295577,836cc3f600d22fac3128976c112e5682,completion,23,0,stat_low,7,_REACTION_TIME_,8853
1580295577,836cc3f600d22fac3128976c112e5682,completion,23,1,stat_low,7,in,s'est produit sur scène dimanche soir
1580295577,836cc3f600d22fac3128976c112e5682,completion,23,1,stat_low,7,_REACTION_TIME_,31478
1580295577,836cc3f600d22fac3128976c112e5682,completion,64,0,filler,63,in,pizzas
1580295577,836cc3f600d22fac3128976c112e5682,completion,64,0,filler,63,_REACTION_TIME_,3861
1580295577,836cc3f600d22fac3128976c112e5682,completion,11,0,stat_low,1,in,111
1580295577,836cc3f600d22fac3128976c112e5682,completion,11,0,stat_low,1,_REACTION_TIME_,29750
1580295577,836cc3f600d22fac3128976c112e5682,completion,11,1,stat_low,1,in,a été poursuivi en justice
1580295577,836cc3f600d22fac3128976c112e5682,completion,11,1,stat_low,1,_REACTION_TIME_,13710
1580295577,836cc3f600d22fac3128976c112e5682,completion,62,0,filler,61,in,vieux
1580295577,836cc3f600d22fac3128976c112e5682,completion,62,0,filler,61,_REACTION_TIME_,6302
1580295577,836cc3f600d22fac3128976c112e5682,completion,46,0,stat_high,18,in,69
1580295577,836cc3f600d22fac3128976c112e5682,completion,46,0,stat_high,18,_REACTION_TIME_,11462
1580295577,836cc3f600d22fac3128976c112e5682,completion,46,1,stat_high,18,in,est connu pour son savoir faire
1580295577,836cc3f600d22fac3128976c112e5682,completion,46,1,stat_high,18,_REACTION_TIME_,23566
1580295577,836cc3f600d22fac3128976c112e5682,completion,63,0,filler,62,in,un style de musique entrainant
1580295577,836cc3f600d22fac3128976c112e5682,completion,63,0,filler,62,_REACTION_TIME_,17686
1580295577,836cc3f600d22fac3128976c112e5682,completion,15,0,stat_low,3,in,111
1580295577,836cc3f600d22fac3128976c112e5682,completion,15,0,stat_low,3,_REACTION_TIME_,17541
1580295577,836cc3f600d22fac3128976c112e5682,completion,15,1,stat_low,3,in,a été assasiné
1580295577,836cc3f600d22fac3128976c112e5682,completion,15,1,stat_low,3,_REACTION_TIME_,11726
1580295577,836cc3f600d22fac3128976c112e5682,completion,47,0,stat_low,19,in,107
1580295577,836cc3f600d22fac3128976c112e5682,completion,47,0,stat_low,19,_REACTION_TIME_,38814
1580295577,836cc3f600d22fac3128976c112e5682,completion,47,1,stat_low,19,in,s'occupe des coiffures
1580295577,836cc3f600d22fac3128976c112e5682,completion,47,1,stat_low,19,_REACTION_TIME_,18749
1580295577,836cc3f600d22fac3128976c112e5682,completion,68,0,filler,67,in,une formation difficile
1580295577,836cc3f600d22fac3128976c112e5682,completion,68,0,filler,67,_REACTION_TIME_,12967
#
# Results on Wednesday January 29 2020 12:54:31 UTC.
# USER AGENT: Mozilla/5.0 (Macintosh; Intel Mac OS X 10_14_6) AppleWebKit/605.1.15 (KHTML, like Gecko) Version/13.0.2 Safari/605.1.15
# Design number was non-random = 7
#
# Columns below this comment are as follows:
# 1. Time results were received.
# 2. MD5 hash of participant's IP address.
# 3. Controller name.
# 4. Item number.
# 5. Element number.
# 6. Type.
# 7. Group.
# 8. Field name.
# 9. Field value.
1580302472,24cb4398afc527c8c93fd2cdd8baed72,completion,2,0,intro,NULL,age,49
1580302472,24cb4398afc527c8c93fd2cdd8baed72,completion,2,0,intro,NULL,nationality,Francaise
1580302472,24cb4398afc527c8c93fd2cdd8baed72,completion,2,0,intro,NULL,activity,materiaux et commerce international
1580302472,24cb4398afc527c8c93fd2cdd8baed72,completion,2,0,intro,NULL,birth,dordogne
1580302472,24cb4398afc527c8c93fd2cdd8baed72,completion,2,0,intro,NULL,L1,francais
1580302472,24cb4398afc527c8c93fd2cdd8baed72,completion,2,0,intro,NULL,L1,ABC
1580302472,24cb4398afc527c8c93fd2cdd8baed72,completion,2,0,intro,NULL,consent,yes
1580302472,24cb4398afc527c8c93fd2cdd8baed72,completion,2,0,intro,NULL,gender,female
1580302472,24cb4398afc527c8c93fd2cdd8baed72,completion,2,0,intro,NULL,academics,M2
1580302472,24cb4398afc527c8c93fd2cdd8baed72,completion,2,0,intro,NULL,_REACTION_TIME_,5752462
1580302472,24cb4398afc527c8c93fd2cdd8baed72,completion,7,0,practice,32,in,29
1580302472,24cb4398afc527c8c93fd2cdd8baed72,completion,7,0,practice,32,_REACTION_TIME_,55766
1580302472,24cb4398afc527c8c93fd2cdd8baed72,completion,9,0,practice,34,in,17
1580302472,24cb4398afc527c8c93fd2cdd8baed72,completion,9,0,practice,34,_REACTION_TIME_,11731
1580302472,24cb4398afc527c8c93fd2cdd8baed72,completion,4,0,practice,103,in,vertes
1580302472,24cb4398afc527c8c93fd2cdd8baed72,completion,4,0,practice,103,_REACTION_TIME_,4660
1580302472,24cb4398afc527c8c93fd2cdd8baed72,completion,5,0,practice,101,in,femmes
1580302472,24cb4398afc527c8c93fd2cdd8baed72,completion,5,0,practice,101,_REACTION_TIME_,7060
1580302472,24cb4398afc527c8c93fd2cdd8baed72,completion,3,0,practice,102,in,lundi
1580302472,24cb4398afc527c8c93fd2cdd8baed72,completion,3,0,practice,102,_REACTION_TIME_,4406
1580302472,24cb4398afc527c8c93fd2cdd8baed72,completion,13,0,stat_low,2,in,116
1580302472,24cb4398afc527c8c93fd2cdd8baed72,completion,13,0,stat_low,2,_REACTION_TIME_,17265
1580302472,24cb4398afc527c8c93fd2cdd8baed72,completion,13,1,stat_low,2,in,s'entraine
1580302472,24cb4398afc527c8c93fd2cdd8baed72,completion,13,1,stat_low,2,_REACTION_TIME_,9478
1580302472,24cb4398afc527c8c93fd2cdd8baed72,completion,40,0,stat_high,15,in,73
1580302472,24cb4398afc527c8c93fd2cdd8baed72,completion,40,0,stat_high,15,_REACTION_TIME_,30157
1580302472,24cb4398afc527c8c93fd2cdd8baed72,completion,40,1,stat_high,15,in,était malade
1580302472,24cb4398afc527c8c93fd2cdd8baed72,completion,40,1,stat_high,15,_REACTION_TIME_,8292
1580302472,24cb4398afc527c8c93fd2cdd8baed72,completion,56,0,FM,36,in,24
1580302472,24cb4398afc527c8c93fd2cdd8baed72,completion,56,0,FM,36,_REACTION_TIME_,11469
1580302472,24cb4398afc527c8c93fd2cdd8baed72,completion,37,0,stat_low,14,in,108
1580302472,24cb4398afc527c8c93fd2cdd8baed72,completion,37,0,stat_low,14,_REACTION_TIME_,10957
1580302472,24cb4398afc527c8c93fd2cdd8baed72,completion,37,1,stat_low,14,in,etait si joli garçon
1580302472,24cb4398afc527c8c93fd2cdd8baed72,completion,37,1,stat_low,14,_REACTION_TIME_,13694
1580302472,24cb4398afc527c8c93fd2cdd8baed72,completion,69,0,filler,68,in,partir en intervention
1580302472,24cb4398afc527c8c93fd2cdd8baed72,completion,69,0,filler,68,_REACTION_TIME_,8461
1580302472,24cb4398afc527c8c93fd2cdd8baed72,completion,12,0,stat_high,1,in,65
1580302472,24cb4398afc527c8c93fd2cdd8baed72,completion,12,0,stat_high,1,_REACTION_TIME_,29638
1580302472,24cb4398afc527c8c93fd2cdd8baed72,completion,12,1,stat_high,1,in,passe à la TV
1580302472,24cb4398afc527c8c93fd2cdd8baed72,completion,12,1,stat_high,1,_REACTION_TIME_,8765
1580302472,24cb4398afc527c8c93fd2cdd8baed72,completion,55,0,FM,35,in,4
1580302472,24cb4398afc527c8c93fd2cdd8baed72,completion,55,0,FM,35,_REACTION_TIME_,7678
1580302472,24cb4398afc527c8c93fd2cdd8baed72,completion,29,0,stat_low,10,in,91
1580302472,24cb4398afc527c8c93fd2cdd8baed72,completion,29,0,stat_low,10,_REACTION_TIME_,13462
1580302472,24cb4398afc527c8c93fd2cdd8baed72,completion,29,1,stat_low,10,in,s'entrainent en bas
1580302472,24cb4398afc527c8c93fd2cdd8baed72,completion,29,1,stat_low,10,_REACTION_TIME_,18578
1580302472,24cb4398afc527c8c93fd2cdd8baed72,completion,65,0,filler,64,in,cinéma
1580302472,24cb4398afc527c8c93fd2cdd8baed72,completion,65,0,filler,64,_REACTION_TIME_,5079
1580302472,24cb4398afc527c8c93fd2cdd8baed72,completion,45,0,stat_low,18,in,99
1580302472,24cb4398afc527c8c93fd2cdd8baed72,completion,45,0,stat_low,18,_REACTION_TIME_,8711
1580302472,24cb4398afc527c8c93fd2cdd8baed72,completion,45,1,stat_low,18,in,jouent dans cette série
1580302472,24cb4398afc527c8c93fd2cdd8baed72,completion,45,1,stat_low,18,_REACTION_TIME_,12654
1580302472,24cb4398afc527c8c93fd2cdd8baed72,completion,61,0,filler,60,in,les JO
1580302472,24cb4398afc527c8c93fd2cdd8baed72,completion,61,0,filler,60,_REACTION_TIME_,6102
1580302472,24cb4398afc527c8c93fd2cdd8baed72,completion,32,0,stat_high,11,in,48
1580302472,24cb4398afc527c8c93fd2cdd8baed72,completion,32,0,stat_high,11,_REACTION_TIME_,39134
1580302472,24cb4398afc527c8c93fd2cdd8baed72,completion,32,1,stat_high,11,in,est une relation du coté de sa femme
1580302472,24cb4398afc527c8c93fd2cdd8baed72,completion,32,1,stat_high,11,_REACTION_TIME_,20270
1580302472,24cb4398afc527c8c93fd2cdd8baed72,completion,67,0,filler,66,in,toujours ses subalternes
1580302472,24cb4398afc527c8c93fd2cdd8baed72,completion,67,0,filler,66,_REACTION_TIME_,18845
1580302472,24cb4398afc527c8c93fd2cdd8baed72,completion,16,0,stat_high,3,in,59
1580302472,24cb4398afc527c8c93fd2cdd8baed72,completion,16,0,stat_high,3,_REACTION_TIME_,23222
1580302472,24cb4398afc527c8c93fd2cdd8baed72,completion,16,1,stat_high,3,in,taillent si bien lmes haies
1580302472,24cb4398afc527c8c93fd2cdd8baed72,completion,16,1,stat_high,3,_REACTION_TIME_,15669
1580302472,24cb4398afc527c8c93fd2cdd8baed72,completion,57,0,FM,37,in,7
1580302472,24cb4398afc527c8c93fd2cdd8baed72,completion,57,0,FM,37,_REACTION_TIME_,7613
1580302472,24cb4398afc527c8c93fd2cdd8baed72,completion,48,0,stat_high,19,in,59
1580302472,24cb4398afc527c8c93fd2cdd8baed72,completion,48,0,stat_high,19,_REACTION_TIME_,13886
1580302472,24cb4398afc527c8c93fd2cdd8baed72,completion,48,1,stat_high,19,in,se produisent demain à Toulouse
1580302472,24cb4398afc527c8c93fd2cdd8baed72,completion,48,1,stat_high,19,_REACTION_TIME_,14518
1580302472,24cb4398afc527c8c93fd2cdd8baed72,completion,59,0,FM,39,in,25
1580302472,24cb4398afc527c8c93fd2cdd8baed72,completion,59,0,FM,39,_REACTION_TIME_,7341
1580302472,24cb4398afc527c8c93fd2cdd8baed72,completion,25,0,stat_low,8,in,97
1580302472,24cb4398afc527c8c93fd2cdd8baed72,completion,25,0,stat_low,8,_REACTION_TIME_,24054
1580302472,24cb4398afc527c8c93fd2cdd8baed72,completion,25,1,stat_low,8,in,suivent ses cours de langue du mardi
1580302472,24cb4398afc527c8c93fd2cdd8baed72,completion,25,1,stat_low,8,_REACTION_TIME_,14940
1580302472,24cb4398afc527c8c93fd2cdd8baed72,completion,60,0,FM,40,in,15
1580302472,24cb4398afc527c8c93fd2cdd8baed72,completion,60,0,FM,40,_REACTION_TIME_,9029
1580302472,24cb4398afc527c8c93fd2cdd8baed72,completion,24,0,stat_high,7,in,70
1580302472,24cb4398afc527c8c93fd2cdd8baed72,completion,24,0,stat_high,7,_REACTION_TIME_,21038
1580302472,24cb4398afc527c8c93fd2cdd8baed72,completion,24,1,stat_high,7,in,est passé hier soir à la TV
1580302472,24cb4398afc527c8c93fd2cdd8baed72,completion,24,1,stat_high,7,_REACTION_TIME_,16718
1580302472,24cb4398afc527c8c93fd2cdd8baed72,completion,44,0,stat_high,17,in,79
1580302472,24cb4398afc527c8c93fd2cdd8baed72,completion,44,0,stat_high,17,_REACTION_TIME_,14998
1580302472,24cb4398afc527c8c93fd2cdd8baed72,completion,44,1,stat_high,17,in,s'est fait viré
1580302472,24cb4398afc527c8c93fd2cdd8baed72,completion,44,1,stat_high,17,_REACTION_TIME_,9878
1580302472,24cb4398afc527c8c93fd2cdd8baed72,completion,62,0,filler,61,in,papis
1580302472,24cb4398afc527c8c93fd2cdd8baed72,completion,62,0,filler,61,_REACTION_TIME_,5638
1580302472,24cb4398afc527c8c93fd2cdd8baed72,completion,20,0,stat_high,5,in,81
1580302472,24cb4398afc527c8c93fd2cdd8baed72,completion,20,0,stat_high,5,_REACTION_TIME_,19086
1580302472,24cb4398afc527c8c93fd2cdd8baed72,completion,20,1,stat_high,5,in,passe a la tv avec michel siemmes
1580302472,24cb4398afc527c8c93fd2cdd8baed72,completion,20,1,stat_high,5,_REACTION_TIME_,17525
1580302472,24cb4398afc527c8c93fd2cdd8baed72,completion,64,0,filler,63,in,rollers sur amazon
1580302472,24cb4398afc527c8c93fd2cdd8baed72,completion,64,0,filler,63,_REACTION_TIME_,9975
1580302472,24cb4398afc527c8c93fd2cdd8baed72,completion,49,0,stat_low,20,in,67
1580302472,24cb4398afc527c8c93fd2cdd8baed72,completion,49,0,stat_low,20,_REACTION_TIME_,24406
1580302472,24cb4398afc527c8c93fd2cdd8baed72,completion,49,1,stat_low,20,in,se sont mutinés 
1580302472,24cb4398afc527c8c93fd2cdd8baed72,completion,49,1,stat_low,20,_REACTION_TIME_,21613
1580302472,24cb4398afc527c8c93fd2cdd8baed72,completion,53,0,FM,33,in,9
1580302472,24cb4398afc527c8c93fd2cdd8baed72,completion,53,0,FM,33,_REACTION_TIME_,15293
1580302472,24cb4398afc527c8c93fd2cdd8baed72,completion,21,0,stat_low,6,in,116
1580302472,24cb4398afc527c8c93fd2cdd8baed72,completion,21,0,stat_low,6,_REACTION_TIME_,11869
1580302472,24cb4398afc527c8c93fd2cdd8baed72,completion,21,1,stat_low,6,in,s'est rendu coupable de tels crimes
1580302472,24cb4398afc527c8c93fd2cdd8baed72,completion,21,1,stat_low,6,_REACTION_TIME_,16734
1580302472,24cb4398afc527c8c93fd2cdd8baed72,completion,66,0,filler,65,in,à répéter
1580302472,24cb4398afc527c8c93fd2cdd8baed72,completion,66,0,filler,65,_REACTION_TIME_,13438
1580302472,24cb4398afc527c8c93fd2cdd8baed72,completion,17,0,stat_low,4,in,93
1580302472,24cb4398afc527c8c93fd2cdd8baed72,completion,17,0,stat_low,4,_REACTION_TIME_,10726
1580302472,24cb4398afc527c8c93fd2cdd8baed72,completion,17,1,stat_low,4,in,a perdu son mari René
1580302472,24cb4398afc527c8c93fd2cdd8baed72,completion,17,1,stat_low,4,_REACTION_TIME_,10446
1580302472,24cb4398afc527c8c93fd2cdd8baed72,completion,58,0,FM,38,in,21
1580302472,24cb4398afc527c8c93fd2cdd8baed72,completion,58,0,FM,38,_REACTION_TIME_,5662
1580302472,24cb4398afc527c8c93fd2cdd8baed72,completion,33,0,stat_low,12,in,104
1580302472,24cb4398afc527c8c93fd2cdd8baed72,completion,33,0,stat_low,12,_REACTION_TIME_,17870
1580302472,24cb4398afc527c8c93fd2cdd8baed72,completion,33,1,stat_low,12,in,se sont produits ce soir
1580302472,24cb4398afc527c8c93fd2cdd8baed72,completion,33,1,stat_low,12,_REACTION_TIME_,11894
1580302472,24cb4398afc527c8c93fd2cdd8baed72,completion,68,0,filler,67,in,leur leader
1580302472,24cb4398afc527c8c93fd2cdd8baed72,completion,68,0,filler,67,_REACTION_TIME_,5982
